Time,Acceleration_X,Acceleration_Y,Acceleration_Z,Pitch_degree,Roll_degree,Yaw_degree,Heading_degree,Pitch_rate,Roll_rate,Yaw_rate
497.867,2.234997803,-0.02755477826,-32.1011568,3.929778655,0.3473315004,,73.95863808,0,0,0
497.867,2.234997803,-0.02755477826,-32.1011568,3.929778655,0.3473315004,,73.95863808,0,0,0
497.867,2.234997803,-0.02755477826,-32.1011568,3.929778655,0.3473315004,,73.95863808,0,0,0
497.867,2.234997803,-0.02755477826,-32.1011568,3.929778655,0.3473315004,,73.95863808,0,0,0
497.867,2.234997803,-0.02755477826,-32.1011568,3.929778655,0.3473315004,,73.95863808,0,0,0
497.867,2.234997803,-0.02755477826,-32.1011568,3.929778655,0.3473315004,,73.95863808,0,0,0
497.867,2.234997803,-0.02755477826,-32.1011568,3.929778655,0.3473315004,,73.95863808,0,0,0
497.867,2.234997803,-0.02755477826,-32.1011568,3.929778655,0.3473315004,,73.95863808,0,0,0
497.867,2.234997803,-0.02755477826,-32.1011568,3.929778655,0.3473315004,,73.95863808,0,0,0
497.867,2.234997803,-0.02755477826,-32.1011568,3.929778655,0.3473315004,,73.95863808,0,0,0
497.975,2.236967014,-0.3145093666,-32.1002608,3.933035393,0.3750828618,,73.96082974,0.0003959203737,0.0041769576,0.0003295179531
498.408,2.236954939,-0.3143947807,-32.10029453,3.933062742,0.3754278075,,73.96085693,0.0001198614663,0.002354908756,0.00018524298
498.408,2.236954939,-0.3143947807,-32.10029453,3.933062742,0.3754278075,,73.96085693,0.0001198614663,0.002354908756,0.00018524298
498.408,2.236954939,-0.3143947807,-32.10029453,3.933062742,0.3754278075,,73.96085693,0.0001198614663,0.002354908756,0.00018524298
498.408,2.236954939,-0.3143947807,-32.10029453,3.933062742,0.3754278075,,73.96085693,0.0001198614663,0.002354908756,0.00018524298
498.492,2.236590017,-0.3133736826,-32.10033721,3.932868205,0.3753779133,,73.96085201,-0.0003371880494,-0.00027108774,-2.300203672e-05
498.592,2.236689188,-0.3136403957,-32.10026911,3.932818697,0.3752989881,,73.96084557,-0.0003298045498,-0.0007280347481,-5.87858193e-05
498.692,2.236643488,-0.3134916985,-32.10033922,3.932784672,0.3752141203,,73.96083874,-0.0003435234697,-0.0009538556515,-7.655904022e-05
498.792,2.236652654,-0.3134415323,-32.10026755,3.932749843,0.3751096208,,73.96083036,-0.0003579542865,-0.001150290526,-9.203218131e-05
498.892,2.23659293,-0.3133286792,-32.10049074,3.932711507,0.3749871022,,73.96082056,-0.000420451293,-0.001304079596,-0.0001044113193
499.6,2.236577828,-0.3132857836,-32.10031164,3.932697654,0.3749431255,,73.96081704,-0.0004097564788,-0.001343310833,-0.000107430968
499.6,2.236577828,-0.3132857836,-32.10031164,3.932697654,0.3749431255,,73.96081704,-0.0004097564788,-0.001343310833,-0.000107430968
499.6,2.236577828,-0.3132857836,-32.10031164,3.932697654,0.3749431255,,73.96081704,-0.0004097564788,-0.001343310833,-0.000107430968
499.6,2.236577828,-0.3132857836,-32.10031164,3.932697654,0.3749431255,,73.96081704,-0.0004097564788,-0.001343310833,-0.000107430968
499.6,2.236577828,-0.3132857836,-32.10031164,3.932697654,0.3749431255,,73.96081704,-0.0004097564788,-0.001343310833,-0.000107430968
499.6,2.236577828,-0.3132857836,-32.10031164,3.932697654,0.3749431255,,73.96081704,-0.0004097564788,-0.001343310833,-0.000107430968
499.6,2.236577828,-0.3132857836,-32.10031164,3.932697654,0.3749431255,,73.96081704,-0.0004097564788,-0.001343310833,-0.000107430968
499.667,2.236358887,-0.312258918,-32.1003515,3.932360102,0.3735485752,,73.96070597,-0.0001887582379,-0.0005504480507,-4.412941689e-05
499.767,2.236366222,-0.3125231595,-32.10031839,3.932339159,0.3734589307,,73.96069883,-0.0001181442915,-0.0008067784826,-6.385349163e-05
499.867,2.236409557,-0.3124030073,-32.1003005,3.932327423,0.3733730178,,73.96069204,-0.0001267191611,-0.0009049861783,-7.159617144e-05
499.967,2.236380231,-0.31234867,-32.10031279,3.932314615,0.3732772408,,73.96068446,-0.0001256123829,-0.001017675458,-8.042301872e-05
500.067,2.23636302,-0.3122597226,-32.10031798,3.93230272,0.373171303,,73.9606761,-0.0001088805484,-0.001102445192,-8.698060131e-05
500.167,2.236334657,-0.3121833134,-32.100335,3.932294459,0.3730548745,,73.96066693,-5.15969639e-05,-0.001219013529,-9.582198794e-05
500.267,2.236420808,-0.3119952018,-32.10031755,3.932289882,0.3729322833,,73.9606573,-5.721883669e-05,-0.001196170348,-9.405989243e-05
500.367,2.236476639,-0.3120051529,-32.10031035,3.93227993,0.3728136703,,73.96064795,-0.0001593655435,-0.00118562793,-9.376210456e-05
500.467,2.236453221,-0.31194001,-32.10031548,3.932258584,0.3726945438,,73.9606385,-0.0002742457199,-0.00119760092,-9.529605982e-05
500.567,2.236537312,-0.3117589552,-32.10019108,3.932228393,0.3725705261,,73.96062862,-0.0003672204018,-0.001236415644,-9.882218549e-05
500.667,2.236380184,-0.3117842595,-32.10033017,3.932185107,0.3724493748,,73.9606189,-0.0004862431233,-0.001197894278,-9.641764599e-05
500.767,2.236262187,-0.3117737216,-32.10036185,3.932135301,0.3723282236,,73.96060915,-0.0004900771764,-0.001250666858,-0.0001005731145
501.15,2.236274857,-0.3116029264,-32.10045704,3.932102542,0.3722452001,,73.96060247,-0.0004985402401,-0.001209977875,-9.742842746e-05
501.15,2.236274857,-0.3116029264,-32.10045704,3.932102542,0.3722452001,,73.96060247,-0.0004985402401,-0.001209977875,-9.742842746e-05
501.15,2.236274857,-0.3116029264,-32.10045704,3.932102542,0.3722452001,,73.96060247,-0.0004985402401,-0.001209977875,-9.742842746e-05
501.192,2.236119764,-0.311088236,-32.10039993,3.931928851,0.371712219,,73.9605598,-0.0003561037842,-0.0009206056504,-7.400436157e-05
501.292,2.236111322,-0.3113710189,-32.10035389,3.931892893,0.3716161567,,73.96055208,-0.0003049303449,-0.000890497864,-7.137798732e-05
501.392,2.236098245,-0.3113319841,-32.10035648,3.931864354,0.3715242365,,73.96054473,-0.0002626583506,-0.0009536711333,-7.611150431e-05
501.492,2.236049919,-0.3113288901,-32.10032388,3.931840415,0.3714251856,,73.96053684,-0.0001988406451,-0.001058090644,-8.39638742e-05
501.617,2.236061406,-0.3112580119,-32.10036361,3.931834084,0.3713895594,,73.96053402,-0.0001759177554,-0.001082972978,-8.579460396e-05
501.692,2.236070927,-0.3110135257,-32.10036526,3.931808521,0.3712065715,,73.96051954,-0.0001402064827,-0.001048925406,-8.293919828e-05
501.792,2.236055425,-0.3110492853,-32.10036445,3.93179554,0.3710934395,,73.96051061,-9.458596828e-05,-0.001045428329,-8.242995618e-05
501.892,2.236126419,-0.311173691,-32.10068357,3.93178822,0.370987859,,73.96050229,-5.213295294e-05,-0.001084591876,-8.527800832e-05
502.058,2.23600433,-0.3108218204,-32.10041047,3.931783408,0.3708750722,,73.96049343,-2.201614597e-05,-0.001119567675,-8.786197683e-05
502.092,2.23605082,-0.3106552904,-32.10038529,3.931785806,0.3707569257,,73.96048418,6.135599586e-05,-0.00113481135,-8.862176256e-05
502.175,2.2359728,-0.3109469353,-32.10006165,3.931790786,0.3706831966,,73.96047843,9.715451365e-05,-0.001102380037,-8.589752501e-05
502.275,2.236133197,-0.3105965569,-32.1003527,3.93180662,0.370551777,,73.96046821,0.0001370892007,-0.001048345435,-8.14548686e-05
502.392,2.236217404,-0.3107549919,-32.10069724,3.931819526,0.3704443485,,73.96045986,9.329351526e-05,-0.0009571457959,-7.453609876e-05
502.492,2.23606474,-0.3103916965,-32.10004057,3.931825809,0.3703404912,,73.96045175,3.516821791e-05,-0.0009165535513,-7.165213106e-05
502.592,2.236111991,-0.3105331148,-32.10037199,3.931830198,0.3702547153,,73.96044505,4.821839668e-05,-0.000820158857,-6.403320784e-05
502.692,2.236116924,-0.3105150752,-32.1003723,3.931835079,0.3701738512,,73.96043874,4.920607501e-05,-0.0007994913086,-6.240816252e-05
502.792,2.236117007,-0.310479547,-32.1003725,3.931840067,0.3700941938,,73.96043252,5.127016224e-05,-0.0007947485378,-6.202580691e-05
502.892,2.236116096,-0.3104408154,-32.10037406,3.93184543,0.3700146166,,73.96042631,5.720736574e-05,-0.0007980009665,-6.225006859e-05
502.992,2.236115991,-0.3103999094,-32.10037366,3.931851574,0.36993444,,73.96042006,6.714789409e-05,-0.0008069068145,-6.289664553e-05
503.092,2.236117156,-0.3103575068,-32.1003743,3.931858874,0.3698531652,,73.96041373,8.046874841e-05,-0.0008201586509,-6.386634102e-05
503.3,2.236108175,-0.310314013,-32.10038406,3.931869711,0.3697658841,,73.96040694,0.0001309959571,-0.0008996751913,-6.98364185e-05
503.3,2.236108175,-0.310314013,-32.10038406,3.931869711,0.3697658841,,73.96040694,0.0001309959571,-0.0008996751913,-6.98364185e-05
503.375,2.236140356,-0.3101206389,-32.100381,3.931896085,0.3695891981,,73.96039323,0.0001623777011,-0.0009075980733,-7.029066937e-05
503.475,2.236160986,-0.3101525979,-32.10037267,3.931911159,0.3695032435,,73.96038657,0.0001427017721,-0.0008392557929,-6.503967068e-05
503.575,2.236150792,-0.3101338474,-32.10037197,3.931925776,0.3694180196,,73.96037997,0.000153650819,-0.0008716084943,-6.752060301e-05
503.675,2.236153383,-0.3100839999,-32.10037404,3.931942131,0.3693289849,,73.96037308,0.000176397629,-0.0009121801497,-7.058281334e-05
503.775,2.236162026,-0.3100298981,-32.10037482,3.931960969,0.3692359436,,73.96036588,0.0002028467228,-0.0009513753534,-7.35180701e-05
503.875,2.236148179,-0.3100113288,-32.10036853,3.931983305,0.3691370806,,73.96035825,0.0002570194826,-0.001046982363,-8.073065618e-05
503.975,2.236212618,-0.3098742948,-32.10036622,3.932009929,0.3690328269,,73.96035022,0.000266129089,-0.001023210339,-7.881931601e-05
504.075,2.236210911,-0.3098544361,-32.10037219,3.932037043,0.3689295702,,73.96034226,0.0002799487339,-0.001049100574,-8.077712606e-05
504.175,2.236185868,-0.3097977493,-32.10039136,3.932066183,0.3688228737,,73.96033405,0.0003144621327,-0.001088263728,-8.366824982e-05
504.275,2.235998974,-0.3098990741,-32.10010367,3.932106372,0.3687131188,,73.96032566,0.0005198664895,-0.001128706752,-8.577422148e-05
504.375,2.236202016,-0.3095609752,-32.10046958,3.932169655,0.3685961317,,73.96031682,0.0007390114727,-0.001164729969,-8.746129561e-05
504.475,2.235883072,-0.3096051802,-32.10054813,3.932254154,0.3684799109,,73.96030815,0.001050074389,-0.001175012231,-8.665548146e-05
504.575,2.235459111,-0.3095452547,-32.10058641,3.932396689,0.3683602996,,73.96029951,0.001960490702,-0.001221129258,-8.555022638e-05
504.675,2.236082583,-0.3096173151,-32.10030447,3.932633238,0.3682350769,,73.96029092,0.002730957584,-0.001329076771,-9.00221591e-05
504.775,2.236621272,-0.3094116255,-32.10034361,3.932920512,0.3680998999,,73.96028181,0.002953931932,-0.001363056768,-9.153465429e-05
504.875,2.237404624,-0.30917813,-32.10052858,3.93320309,0.3679596081,,73.96027228,0.002593318372,-0.00144613386,-9.992014982e-05
504.975,2.237495518,-0.3092513056,-32.10022895,3.933435882,0.3678146129,,73.96026212,0.002028300066,-0.001491429457,-0.0001064137146
505.192,2.238392569,-0.3091165325,-32.09966769,3.933552247,0.3677169136,,73.96025506,0.001281826001,-0.001457998978,-0.0001076678279
505.192,2.238392569,-0.3091165325,-32.09966769,3.933552247,0.3677169136,,73.96025506,0.001281826001,-0.001457998978,-0.0001076678279
505.292,2.238603675,-0.3086002526,-32.0998785,3.933590155,0.3673127867,,73.96022357,-0.001137953895,-0.001221307668,-0.0001016610134
505.408,2.237265228,-0.3088140798,-32.10037652,3.933433396,0.3672018893,,73.96021407,-0.001854063335,-0.001043525266,-9.143687164e-05
505.483,2.236649688,-0.3088346771,-32.10039141,3.933268495,0.3671021363,,73.96020539,-0.001670617267,-0.001144706164,-9.841200702e-05
505.608,2.23635668,-0.3088309396,-32.10045291,3.933115447,0.3669686106,,73.96019413,-0.001062587647,-0.001375800706,-0.0001133712258
505.675,2.236289457,-0.308676967,-32.10050296,3.933043637,0.3668493659,,73.96018441,-0.0006176744646,-0.001442117296,-0.0001162646314
505.775,2.236315787,-0.3066997873,-32.10054091,3.933005751,0.3667491301,,73.96017635,-0.0001129142043,-5.318255217e-05,-4.753764483e-06
505.875,2.236278097,-0.3079383426,-32.10046002,3.933020737,0.3668501759,,73.96018435,0.0004642293025,0.001916121586,0.000152624833
505.975,2.236660349,-0.309406562,-32.10038834,3.933085615,0.3670327271,,73.960199,0.000793131831,0.00150549443,0.0001221409157
506.075,2.236782224,-0.3096182305,-32.10029876,3.933168628,0.3671503708,,73.96020865,0.0008832024831,0.0007328226752,6.203603696e-05
506.175,2.236863028,-0.3093928875,-32.10034974,3.933260584,0.3671881346,,73.96021209,0.0009550884234,7.392347217e-06,5.532744707e-06
506.275,2.237038058,-0.3112266714,-32.10029436,3.933356979,0.3671253,,73.96020766,0.0009403578634,-0.001854907763,-0.000140553242
506.375,2.23703777,-0.3099624871,-32.10047234,3.933449094,0.3668306731,,73.96018504,0.0009049278409,-0.004013035318,-0.0003099479517
506.475,2.237069845,-0.3093497514,-32.10017774,3.933540423,0.3663760978,,73.96014988,0.0009459062006,-0.005159041141,-0.0003995933271
506.575,2.237081738,-0.3087782818,-32.10028777,3.933637322,0.3658000127,,73.96010521,0.001012784684,-0.006365731827,-0.0004938706273
506.675,2.237089275,-0.308051792,-32.10036186,3.933741386,0.3651576945,,73.96005539,0.001086968913,-0.006540844322,-0.0005072259784
506.775,2.237168536,-0.3071554245,-32.09999252,3.933855694,0.3644717359,,73.96000219,0.001177626097,-0.006951567393,-0.0005389756464
506.917,2.237372329,-0.3061339713,-32.10027288,3.933972084,0.3637802124,,73.95994857,0.00113735468,-0.006712730124,-0.0005204681174
506.983,2.237576195,-0.3053724306,-32.10010004,3.934088324,0.3631263254,,73.9598979,0.0009929885356,-0.005213821091,-0.0004036952309
507.083,2.237575927,-0.3053713977,-32.10034701,3.934177133,0.3626681923,,73.95986244,0.0007839284716,-0.003911940641,-0.000302693599
507.183,2.237519025,-0.3046296589,-32.09991645,3.934248109,0.3623308291,,73.95983635,0.0006281500222,-0.002535363572,-0.0001955578819
507.283,2.237582001,-0.3030555713,-32.10033403,3.934306179,0.3622117425,,73.95982731,0.0005235979287,0.0006857152628,5.649129389e-05
507.383,2.237551699,-0.3050412746,-32.10013352,3.934358324,0.3624024013,,73.95984254,0.000523743981,0.00296831155,0.000235495334
507.525,2.237567297,-0.3068589011,-32.10031436,3.934408604,0.3627310221,,73.95986857,0.0004957735218,0.003233301047,0.0002561295578
507.592,2.237640153,-0.3072663236,-32.10032928,3.934461384,0.3630355716,,73.95989272,0.0004647796701,0.002315743546,0.0001840143881
507.692,2.237597549,-0.3072755741,-32.10028831,3.93451039,0.3632301164,,73.95990823,0.0005076870962,0.001534466472,0.0001229687169
507.792,2.237715344,-0.3072530385,-32.1002609,3.934560822,0.3633541193,,73.95991822,0.0004736327579,0.0009050496564,7.343191846e-05
507.892,2.237666082,-0.3071052348,-32.10030509,3.934608058,0.3634128214,,73.95992307,0.0004732100547,0.0003028588252,2.620423335e-05
507.992,2.237682093,-0.3071207357,-32.10030075,3.934655888,0.363425413,,73.95992431,0.0004863815836,-0.0001057612673,-5.77252945e-06
508.092,2.237758017,-0.3067590039,-32.10040868,3.934705297,0.3634033891,,73.95992283,0.0004927884419,-0.0002874709671,-1.998585911e-05
508.192,2.237735438,-0.30685571,-32.10028917,3.934754354,0.3633700608,,73.95992047,0.0004957559225,-0.0004109764234,-2.966255823e-05
508.267,2.237747594,-0.3071922458,-32.10026297,3.934787814,0.3633345453,,73.95991786,0.000510725482,-0.0007333915098,-5.486966769e-05
508.483,2.237781077,-0.3067117997,-32.10028875,3.934831508,0.3632567398,,73.95991199,0.0005410635375,-0.001060204614,-8.034050465e-05
508.483,2.237781077,-0.3067117997,-32.10028875,3.934831508,0.3632567398,,73.95991199,0.0005410635375,-0.001060204614,-8.034050465e-05
508.667,2.237973451,-0.3062831562,-32.10028854,3.934949689,0.3630541,,73.95989671,0.0006761664804,-0.0009818927122,-7.350425123e-05
508.667,2.237973451,-0.3062831562,-32.10028854,3.934949689,0.3630541,,73.95989671,0.0006761664804,-0.0009818927122,-7.350425123e-05
508.825,2.238062914,-0.3062136262,-32.10026986,3.935156942,0.3627794018,,73.95987624,0.0007093351651,-0.0008237215142,-6.092482619e-05
508.883,2.238035905,-0.3060483012,-32.100282,3.935204503,0.3627354012,,73.95987303,0.0007117494625,-0.000484207108,-3.428751825e-05
508.967,2.238033914,-0.3063563367,-32.10026992,3.935283591,0.36268362,,73.95986938,0.0007506056404,-0.00050177951,-3.546496958e-05
509.075,2.23804589,-0.306372715,-32.1002744,3.935367384,0.36262431,,73.95986517,0.0008066269649,-0.000603821473,-4.317896283e-05
509.175,2.237934153,-0.3064965788,-32.09995768,3.93545233,0.3625596554,,73.95986053,0.0009310803766,-0.0007100900722,-5.087050745e-05
509.283,2.238222159,-0.3061464524,-32.10038845,3.935559874,0.3624745764,,73.95985442,0.001014158481,-0.0008024797056,-5.768475211e-05
509.383,2.238170776,-0.3061627495,-32.10034519,3.935665343,0.3623932639,,73.95984859,0.001123225262,-0.0008376148024,-5.987929042e-05
509.483,2.238168938,-0.306157601,-32.10034703,3.935778507,0.3623080655,,73.95984249,0.001184280762,-0.0008753868094,-6.252662015e-05
509.592,2.238364745,-0.3060546497,-32.10024588,3.935913274,0.362210439,,73.95983553,0.00129671033,-0.0009341000962,-6.65473007e-05
509.692,2.238319266,-0.3060385229,-32.10025964,3.936051685,0.36211568,,73.95982882,0.001482274924,-0.0009671079043,-6.818219618e-05
509.808,2.238441744,-0.3060007106,-32.10023148,3.936153143,0.3620504722,,73.95982423,0.001560190648,-0.0009920168242,-6.973361711e-05
509.867,2.238628464,-0.3057957066,-32.10015,3.93629678,0.3619619019,,73.95981802,0.001820112717,-0.001058368054,-7.358841327e-05
509.975,2.238631661,-0.305804338,-32.10022514,3.936557104,0.3618204853,,73.95980828,0.002098010427,-0.001060674959,-7.233324618e-05
510.075,2.23846297,-0.3058539285,-32.10028615,3.93678108,0.361712321,,73.95980096,0.002463715646,-0.001135961328,-7.635074483e-05
510.183,2.238540244,-0.3056727277,-32.10022908,3.937079191,0.3615865912,,73.95979264,0.003159241083,-0.001183833897,-7.650224464e-05
510.283,2.238133724,-0.305633259,-32.10028263,3.93743295,0.3614710797,,73.95978541,0.004100481154,-0.001129813014,-6.738853487e-05
510.383,2.237599075,-0.3055710526,-32.10036992,3.937914457,0.3613553,,73.95977882,0.005825432194,-0.001159993494,-6.081736548e-05
510.483,2.23548787,-0.3057175062,-32.10108947,3.938638129,0.361238541,,73.95977341,0.009431941942,-0.001196456299,-4.49871509e-05
510.583,2.227289275,-0.3054021803,-32.10081107,3.939944747,0.3611164601,,73.9597706,0.01933444631,-0.001204161963,5.760204164e-06
510.683,2.254918034,-0.3050694395,-32.09500141,3.9425193,0.3609978113,,73.95977464,0.02602870104,-0.001126520782,4.653557349e-05
510.783,2.267884888,-0.3050940333,-32.09797799,3.94383681,0.3608949281,,73.95977339,-0.002712915458,-0.0009122865392,-8.576818659e-05
510.883,2.252457006,-0.3050983127,-32.09931598,3.94262111,0.3608132084,,73.95976066,-0.02040114306,-0.0007095161521,-0.000161584845
510.983,2.241981897,-0.3051246858,-32.10085078,3.940288203,0.3607491797,,73.95974353,-0.02508594293,-0.0005517186004,-0.0001734703566
511.083,2.236552449,-0.3052835542,-32.10262318,3.937848382,0.3606985609,,73.9597269,-0.02287385178,-0.0004222975706,-0.0001518082364
511.183,2.234622436,-0.3050756352,-32.1018842,3.93575003,0.3606606331,,73.95971304,-0.01867943375,-0.0003534419739,-0.0001246342126
511.283,2.234128339,-0.3053230104,-32.1013102,3.934072409,0.3606277802,,73.95970176,-0.01463186594,-0.000316677752,-0.0001007402653
511.383,2.233968735,-0.3050959722,-32.10082097,3.93277181,0.3605950232,,73.95969245,-0.01124467768,-0.0003205800095,-8.347075512e-05
511.483,2.233878197,-0.3052213288,-32.10048106,3.931774528,0.3605606852,,73.95968458,-0.008584750089,-0.0003347937732,-7.077501111e-05
511.583,2.234102599,-0.30513854,-32.10037048,3.931013937,0.3605252202,,73.95967786,-0.00655207157,-0.0003637801455,-6.249808576e-05
511.683,2.234054705,-0.3050876634,-32.10056585,3.930430945,0.3604888602,,73.95967198,-0.005041899333,-0.000377680653,-5.574983679e-05
511.783,2.234172694,-0.3051828356,-32.10018519,3.929981406,0.3604522872,,73.95966678,-0.003941524189,-0.0003400079592,-4.708730521e-05
511.883,2.23420767,-0.3050850001,-32.10051697,3.929627828,0.3604156419,,73.95966208,-0.003098272069,-0.000380809714,-4.590580237e-05
511.983,2.234209906,-0.3050552508,-32.10051682,3.929348988,0.3603770071,,73.95965761,-0.00245378157,-0.0003909831215,-4.335936248e-05
512.083,2.234206142,-0.3050320997,-32.10052048,3.929127319,0.3603375137,,73.95965336,-0.00196043991,-0.0003988478591,-4.141443338e-05
512.183,2.234162777,-0.3050992179,-32.10041344,3.928948411,0.3602997964,,73.95964948,-0.001597039505,-0.0003841946953,-3.837935425e-05
512.267,2.234159429,-0.3049058739,-32.10066866,3.928849162,0.3602733591,,73.95964689,-0.001353018519,-0.0003780452134,-3.663167565e-05
512.367,2.234146414,-0.3049961081,-32.10053381,3.928709658,0.3602270624,,73.95964254,-0.001022847615,-0.0004337632328,-3.92813522e-05
512.467,2.234105728,-0.305106575,-32.1002287,3.928615194,0.3601866607,,73.95963889,-0.0008565333438,-0.0004041718362,-3.609986414e-05
512.567,2.234180147,-0.304934505,-32.10055704,3.928534143,0.360141897,,73.95963496,-0.0007589516545,-0.0004718805313,-4.089658491e-05
512.667,2.234153262,-0.3048884159,-32.10055852,3.928461366,0.3600980335,,73.95963115,-0.0006864504585,-0.0004212042388,-3.655191856e-05
512.767,2.234048618,-0.3049217732,-32.10055743,3.928401254,0.3600531836,,73.95962733,-0.000500258003,-0.0004976068205,-4.156788681e-05
512.867,2.234096103,-0.3048426571,-32.10057339,3.928356925,0.3600020097,,73.95962309,-0.0003888470288,-0.000520530094,-4.278521108e-05
512.967,2.234105149,-0.3048100476,-32.10057598,3.928321216,0.3599495917,,73.9596188,-0.0003249006957,-0.0005276714101,-4.301252132e-05
513.067,2.234147494,-0.3047821858,-32.10058506,3.928288851,0.359896476,,73.95961447,-0.0003376955712,-0.000535304119,-4.367658958e-05
513.167,2.234088824,-0.3047524502,-32.10058709,3.928255518,0.3598424939,,73.95961007,-0.0003210005356,-0.0005448883448,-4.434018963e-05
513.267,2.234030446,-0.3046059483,-32.10047332,3.928225608,0.3597912773,,73.95960591,-0.0002674186707,-0.0004519360234,-3.677764245e-05
513.367,2.234019028,-0.3045994778,-32.10049943,3.928201942,0.3597518636,,73.9596027,-0.0002007508832,-0.0003299864746,-2.68849163e-05
513.467,2.234022,-0.3046097222,-32.1005192,3.928184626,0.359723403,,73.95960038,-0.000142903236,-0.0002362056901,-1.924221159e-05
513.567,2.234028506,-0.3046186363,-32.1005327,3.928172474,0.3597030896,,73.95959872,-9.869480501e-05,-0.0001680543535,-1.367447429e-05
513.667,2.234034883,-0.3046255368,-32.10054325,3.928164155,0.3596886684,,73.95959755,-6.687395022e-05,-0.0001189512156,-9.663528847e-06
513.767,2.23403992,-0.3046305524,-32.10055004,3.928158552,0.3596784895,,73.95959672,-4.47083358e-05,-8.360038844e-05,-6.780866642e-06
513.867,2.234043655,-0.304634213,-32.10055502,3.928154824,0.3596713643,,73.95959615,-2.955483665e-05,-5.816694081e-05,-4.709881767e-06
513.967,2.234046533,-0.3046370594,-32.10056018,3.92815237,0.3596664363,,73.95959575,-1.932559671e-05,-3.986785355e-05,-3.223042121e-06
514.067,2.234048376,-0.3046392673,-32.10056263,3.928150776,0.3596630891,,73.95959548,-1.245413684e-05,-2.669730535e-05,-2.156637979e-06
514.167,2.234049745,-0.3046408568,-32.1005654,3.928149755,0.3596608792,,73.9595953,-7.877438576e-06,-1.72307666e-05,-1.388904243e-06
514.267,2.234050622,-0.3046420633,-32.10056624,3.928149118,0.359659488,,73.95959519,-4.819886335e-06,-1.040738729e-05,-8.389587382e-07
514.367,2.234051284,-0.3046431158,-32.10056738,3.928148735,0.3596586859,,73.95959512,-2.812294838e-06,-5.478823364e-06,-4.425665385e-07
514.467,2.234051732,-0.3046440351,-32.1005681,3.92814852,0.3596583085,,73.95959509,-1.465687994e-06,-1.963722613e-06,-1.601024329e-07
514.567,2.234052053,-0.3046447637,-32.10056867,3.928148418,0.3596582364,,73.95959508,-5.590693111e-07,5.833407012e-07,4.375912057e-08
514.667,2.234052302,-0.3046453822,-32.10056937,3.928148391,0.3596583829,,73.9595951,3.650036067e-08,2.407070176e-06,1.908190071e-07
514.767,2.234052618,-0.3046460187,-32.10057043,3.928148414,0.3596586876,,73.95959512,4.1950281e-07,3.723572689e-06,2.947910077e-07
514.867,2.234052722,-0.304646448,-32.10057026,3.928148467,0.3596591048,,73.95959515,6.630977901e-07,4.657794806e-06,3.693478035e-07
514.967,2.234052728,-0.3046470245,-32.10056984,3.928148542,0.3596596047,,73.95959519,8.399096768e-07,5.348355026e-06,4.247255912e-07
515.067,2.234052859,-0.3046474404,-32.10057002,3.928148631,0.3596601628,,73.95959524,9.520555981e-07,5.834029016e-06,4.628690193e-07
515.167,2.234053009,-0.3046478952,-32.10057061,3.92814873,0.3596607632,,73.95959528,1.030859835e-06,6.185766623e-06,4.906370815e-07
515.267,2.234053124,-0.304648312,-32.10057106,3.928148835,0.3596613946,,73.95959533,1.07719267e-06,6.433025742e-06,5.105017608e-07
515.367,2.234053197,-0.3046487335,-32.10057089,3.928148944,0.3596620476,,73.95959539,1.109423367e-06,6.62082623e-06,5.252816306e-07
515.467,2.234053332,-0.3046491623,-32.10057118,3.928149056,0.3596627164,,73.95959544,1.131365528e-06,6.751902791e-06,5.360845079e-07
515.567,2.234053277,-0.304649549,-32.10057055,3.92814917,0.3596633965,,73.95959549,1.153333394e-06,6.861224496e-06,5.453993381e-07
515.667,2.234053327,-0.3046499691,-32.10057029,3.928149285,0.359664085,,73.95959555,1.157329532e-06,6.924290069e-06,5.492057061e-07
515.767,2.23405345,-0.3046503479,-32.10057077,3.928149401,0.3596647796,,73.9595956,1.161568751e-06,6.964454981e-06,5.528169125e-07
515.867,2.234053595,-0.3046507804,-32.10057135,3.928149517,0.3596654782,,73.95959566,1.163474447e-06,6.990876838e-06,5.547941602e-07
515.967,2.234053655,-0.304651131,-32.10057129,3.928149633,0.3596661789,,73.95959571,1.158247706e-06,7.02301739e-06,5.573050117e-07
516.067,2.234053642,-0.3046515892,-32.10057083,3.92814975,0.3596668821,,73.95959577,1.165339344e-06,7.031568663e-06,5.57407242e-07
516.167,2.234053656,-0.304651972,-32.10057006,3.928149866,0.3596675865,,73.95959582,1.174082328e-06,7.049855189e-06,5.592003626e-07
516.267,2.234053739,-0.3046523593,-32.10057028,3.928149983,0.3596682925,,73.95959588,1.162633485e-06,7.062949289e-06,5.601608993e-07
516.367,2.234053892,-0.3046527848,-32.10057106,3.928150099,0.3596689994,,73.95959594,1.166545378e-06,7.055462149e-06,5.60171029e-07
516.467,2.234053975,-0.3046531897,-32.1005708,3.928150216,0.3596697062,,73.95959599,1.169258973e-06,7.071535898e-06,5.60629676e-07
516.567,2.23405397,-0.3046535042,-32.10057085,3.928150333,0.3596704135,,73.95959605,1.175096031e-06,7.090531596e-06,5.626928539e-07
516.667,2.23405402,-0.3046538597,-32.10057046,3.928150449,0.3596711214,,73.9595961,1.165859696e-06,7.094987855e-06,5.629800386e-07
516.767,2.234054073,-0.304654351,-32.10057064,3.928150565,0.3596718296,,73.95959616,1.165650868e-06,7.078751848e-06,5.613394187e-07
516.867,2.234054153,-0.3046547715,-32.1005706,3.928150682,0.3596725374,,73.95959622,1.170440354e-06,7.068796634e-06,5.605248266e-07
516.967,2.234054239,-0.3046551361,-32.10057049,3.928150798,0.3596732453,,73.95959627,1.163364033e-06,7.075335478e-06,5.610300965e-07
517.067,2.234054288,-0.3046555903,-32.10057094,3.928150915,0.3596739536,,73.95959633,1.161506562e-06,7.073112441e-06,5.607968212e-07
517.167,2.234054418,-0.3046559118,-32.10057046,3.928151031,0.3596746613,,73.95959638,1.165006271e-06,7.069788922e-06,5.611878308e-07
517.267,2.234054449,-0.3046563148,-32.10057092,3.928151148,0.3596753689,,73.95959644,1.166408567e-06,7.078980198e-06,5.61801102e-07
517.367,2.234054574,-0.3046566684,-32.10057098,3.928151264,0.3596760768,,73.9595965,1.16610618e-06,7.077083026e-06,5.619529626e-07
517.467,2.234054559,-0.3046571791,-32.10057048,3.92815138,0.3596767851,,73.95959655,1.158019971e-06,7.075507676e-06,5.612632939e-07
517.567,2.234054602,-0.304657534,-32.10057027,3.928151496,0.3596774925,,73.95959661,1.167820391e-06,7.072410883e-06,5.608866132e-07
517.667,2.234054663,-0.3046579175,-32.1005706,3.928151613,0.3596782002,,73.95959666,1.166190142e-06,7.0800114e-06,5.614299056e-07
517.767,2.234054732,-0.3046583801,-32.10057035,3.928151729,0.3596789082,,73.95959672,1.164718e-06,7.08479203e-06,5.624073274e-07
517.867,2.234054861,-0.3046586441,-32.10057053,3.928151845,0.3596796158,,73.95959678,1.160518007e-06,7.079932175e-06,5.617022505e-07
517.967,2.234054886,-0.3046590571,-32.10057031,3.928151961,0.3596803229,,73.95959683,1.161014928e-06,7.071340777e-06,5.613376376e-07
518.067,2.234055006,-0.3046594148,-32.10057064,3.928152077,0.3596810303,,73.95959689,1.160391493e-06,7.067644324e-06,5.613372876e-07
518.167,2.234054983,-0.3046599406,-32.10057024,3.928152193,0.3596817384,,73.95959694,1.157756207e-06,7.067747308e-06,5.606549525e-07
518.267,2.234055075,-0.3046603773,-32.10057063,3.928152309,0.3596824453,,73.959597,1.163019501e-06,7.052155257e-06,5.605149595e-07
518.367,2.234055128,-0.3046607186,-32.10057036,3.928152425,0.3596831521,,73.95959706,1.16257314e-06,7.077041257e-06,5.623364025e-07
518.467,2.234055194,-0.3046611391,-32.1005703,3.928152541,0.3596838594,,73.95959711,1.160930312e-06,7.068781244e-06,5.607017321e-07
518.567,2.234055312,-0.3046615023,-32.10057087,3.928152657,0.3596845664,,73.95959717,1.164656689e-06,7.065975587e-06,5.604226648e-07
518.667,2.234055358,-0.3046618618,-32.10057078,3.928152773,0.3596852731,,73.95959722,1.166441879e-06,7.065534663e-06,5.607776784e-07
518.767,2.23405546,-0.3046622509,-32.10057033,3.928152889,0.3596859799,,73.95959728,1.160036538e-06,7.080728057e-06,5.617042174e-07
518.867,2.234055421,-0.3046626895,-32.10057029,3.928153005,0.359686687,,73.95959733,1.160884135e-06,7.069025749e-06,5.605067485e-07
518.967,2.23405555,-0.3046630529,-32.10057063,3.928153121,0.359687393,,73.95959739,1.162807504e-06,7.062167523e-06,5.609327859e-07
519.067,2.234055594,-0.3046634975,-32.10057086,3.928153237,0.3596880995,,73.95959745,1.16095807e-06,7.057361294e-06,5.609176958e-07
519.167,2.234055609,-0.3046638719,-32.10056975,3.928153353,0.3596888064,,73.9595975,1.15831469e-06,7.066148408e-06,5.616757974e-07
519.267,2.234055816,-0.3046642504,-32.10057107,3.928153468,0.359689513,,73.95959756,1.158463581e-06,7.061577166e-06,5.603240873e-07
519.367,2.234055796,-0.3046645952,-32.10057018,3.928153584,0.3596902192,,73.95959761,1.158309477e-06,7.061111767e-06,5.603849927e-07
519.467,2.234055904,-0.3046650553,-32.10057047,3.9281537,0.3596909261,,73.95959767,1.15776114e-06,7.061749327e-06,5.606530272e-07
519.567,2.234055912,-0.3046655273,-32.10057055,3.928153816,0.3596916327,,73.95959773,1.157964324e-06,7.059073689e-06,5.598437726e-07
519.667,2.234055951,-0.3046658423,-32.10057043,3.928153932,0.3596923386,,73.95959778,1.164412875e-06,7.073263578e-06,5.622202361e-07
519.767,2.234056065,-0.3046662184,-32.10057087,3.928154047,0.3596930445,,73.95959784,1.158206874e-06,7.069803927e-06,5.614638296e-07
519.867,2.234056142,-0.304666604,-32.10057051,3.928154163,0.3596937506,,73.95959789,1.161392459e-06,7.051672515e-06,5.596847024e-07
519.967,2.234056279,-0.3046670071,-32.10057106,3.928154279,0.3596944562,,73.95959795,1.158759202e-06,7.054652858e-06,5.596095719e-07
520.067,2.234056235,-0.3046673783,-32.10057037,3.928154395,0.3596951619,,73.95959801,1.162008615e-06,7.061389272e-06,5.603939682e-07
520.167,2.234056331,-0.304667833,-32.10057086,3.92815451,0.3596958678,,73.95959806,1.156452149e-06,7.050568712e-06,5.600291665e-07
520.267,2.234056327,-0.3046682484,-32.10056989,3.928154627,0.3596965733,,73.95959812,1.158844042e-06,7.042078929e-06,5.584836309e-07
520.367,2.234056473,-0.304668669,-32.10057035,3.928154742,0.3596972791,,73.95959817,1.159062288e-06,7.057442074e-06,5.606229209e-07
520.467,2.23405647,-0.3046690435,-32.1005698,3.928154858,0.3596979849,,73.95959823,1.15536792e-06,7.055368425e-06,5.594625677e-07
520.567,2.234056614,-0.3046694134,-32.10057066,3.928154973,0.3596986902,,73.95959828,1.158956041e-06,7.051777269e-06,5.592020859e-07
520.667,2.23405667,-0.3046698006,-32.1005707,3.928155089,0.3596993957,,73.95959834,1.16326357e-06,7.054432587e-06,5.597533177e-07
520.767,2.234056691,-0.3046701382,-32.10057087,3.928155205,0.3597001012,,73.9595984,1.162060432e-06,7.06924635e-06,5.608907322e-07
520.867,2.234056789,-0.3046705341,-32.10057042,3.928155321,0.3597008059,,73.95959845,1.157599085e-06,7.04724237e-06,5.590394169e-07
520.967,2.234056852,-0.3046710059,-32.10057028,3.928155437,0.3597015113,,73.95959851,1.155012579e-06,7.048006143e-06,5.60132562e-07
521.067,2.234056894,-0.3046713291,-32.10057061,3.928155552,0.3597022166,,73.95959856,1.160968694e-06,7.056881264e-06,5.598595598e-07
521.167,2.234056964,-0.3046717333,-32.1005701,3.928155668,0.3597029214,,73.95959862,1.158412126e-06,7.041241791e-06,5.589293914e-07
521.267,2.234057083,-0.3046721372,-32.10057082,3.928155783,0.3597036263,,73.95959867,1.154023607e-06,7.040735068e-06,5.586003827e-07
521.4,2.234057123,-0.3046727172,-32.10057037,3.928155937,0.3597045665,,73.95959875,1.152611398e-06,7.042480559e-06,5.585886239e-07
521.5,2.234057217,-0.3046731245,-32.10057075,3.928156053,0.3597052708,,73.9595988,1.163126176e-06,7.039797678e-06,5.58045889e-07
521.6,2.234057269,-0.3046735081,-32.10057043,3.928156169,0.3597059754,,73.95959886,1.151579676e-06,7.043011983e-06,5.5946181e-07
521.7,2.234057318,-0.3046738518,-32.10057025,3.928156284,0.3597066807,,73.95959892,1.151809429e-06,7.036384229e-06,5.588725792e-07
521.8,2.234057406,-0.3046742608,-32.10057036,3.928156399,0.3597073849,,73.95959897,1.161076422e-06,7.041633094e-06,5.588275449e-07
521.9,2.23405751,-0.3046746773,-32.10057086,3.928156515,0.3597080891,,73.95959903,1.155597842e-06,7.0466065e-06,5.586220845e-07
522,2.234057412,-0.3046751041,-32.10056983,3.92815663,0.359708794,,73.95959908,1.15732551e-06,7.041841218e-06,5.584249392e-07
522.1,2.234057545,-0.3046754357,-32.10056976,3.928156746,0.3597094977,,73.95959914,1.1568453e-06,7.052226302e-06,5.590852669e-07
522.2,2.234057623,-0.304675799,-32.1005703,3.928156861,0.3597102019,,73.9595992,1.155910451e-06,7.041063997e-06,5.586709715e-07
522.3,2.234057732,-0.3046762765,-32.10057064,3.928156977,0.3597109068,,73.95959925,1.153881581e-06,7.037636371e-06,5.582643349e-07
522.4,2.234057787,-0.3046765708,-32.1005702,3.928157092,0.3597116101,,73.95959931,1.156618615e-06,7.039299636e-06,5.585139866e-07
522.5,2.234057824,-0.3046770169,-32.10057039,3.928157208,0.3597123142,,73.95959936,1.152876446e-06,7.028544207e-06,5.578006253e-07
522.6,2.234057883,-0.3046775143,-32.10056991,3.928157323,0.3597130184,,73.95959942,1.1618484e-06,7.036863341e-06,5.584310622e-07
522.7,2.234057937,-0.3046777886,-32.10056998,3.928157439,0.3597137216,,73.95959947,1.154579782e-06,7.027875589e-06,5.576973047e-07
522.8,2.234058,-0.3046782897,-32.10056994,3.928157554,0.3597144258,,73.95959953,1.149550671e-06,7.031526217e-06,5.573863161e-07
522.9,2.234058135,-0.3046786159,-32.10057014,3.928157669,0.3597151295,,73.95959958,1.155146988e-06,7.044676313e-06,5.586802872e-07
523,2.234058211,-0.3046789782,-32.10057058,3.928157785,0.3597158327,,73.95959964,1.15866074e-06,7.030428988e-06,5.578438425e-07
523.1,2.234058209,-0.30467938,-32.10057017,3.9281579,0.3597165364,,73.9595997,1.15408243e-06,7.041338633e-06,5.589439957e-07
523.2,2.234058225,-0.3046797586,-32.10056962,3.928158015,0.3597172392,,73.95959975,1.15887392e-06,7.033152092e-06,5.576055245e-07
523.3,2.234058322,-0.3046802194,-32.1005698,3.928158131,0.3597179427,,73.95959981,1.151388168e-06,7.024653624e-06,5.569644665e-07
523.4,2.234058335,-0.3046805728,-32.10056971,3.928158246,0.359718646,,73.95959986,1.152602019e-06,7.041415289e-06,5.582554828e-07
523.5,2.23405849,-0.3046809231,-32.10057028,3.928158361,0.3597193492,,73.95959992,1.14918962e-06,7.02415319e-06,5.573481262e-07
523.6,2.234080858,-0.3046552403,-32.10055425,3.928157508,0.3597225099,,73.95960016,-2.687637255e-05,6.707938212e-05,5.111103717e-06
523.7,2.234056521,-0.3046986383,-32.10056316,3.928154186,0.3597293015,,73.95960068,-3.646089437e-05,6.321886728e-05,4.759776529e-06
523.8,2.23404764,-0.3047018994,-32.10056594,3.928150692,0.3597349546,,73.9596011,-3.192492576e-05,4.883562954e-05,3.661076672e-06
523.9,2.234045303,-0.3047012549,-32.10056697,3.928147848,0.3597392771,,73.95960142,-2.421763898e-05,3.722828162e-05,2.791572009e-06
524,2.234045321,-0.3047006368,-32.10056788,3.928145763,0.3597425879,,73.95960167,-1.709877331e-05,2.873971779e-05,2.163837554e-06
524.1,2.234046083,-0.3047001697,-32.10056898,3.928144322,0.3597451655,,73.95960187,-1.152605135e-05,2.263207132e-05,1.714255948e-06
524.2,2.234046834,-0.3047001228,-32.10056964,3.928143366,0.359747216,,73.95960202,-7.482003142e-06,1.823280433e-05,1.390176387e-06
524.3,2.23404743,-0.3047000386,-32.10056916,3.928142756,0.3597488857,,73.95960215,-4.650918614e-06,1.50754795e-05,1.157239932e-06
524.4,2.23404795,-0.3047000795,-32.10056998,3.928142385,0.3597502844,,73.95960226,-2.713420499e-06,1.282829162e-05,9.918764809e-07
524.5,2.234048381,-0.3047002078,-32.10056979,3.928142177,0.3597514878,,73.95960235,-1.413476385e-06,1.118954852e-05,8.707846298e-07
524.6,2.234048657,-0.3047004665,-32.1005699,3.928142079,0.3597525502,,73.95960243,-5.448017426e-07,1.00093273e-05,7.823111483e-07
524.7,2.234048886,-0.3047007799,-32.10057011,3.928142053,0.3597535105,,73.95960251,4.013591884e-08,9.172080541e-06,7.197392479e-07
524.8,2.23404906,-0.3047012016,-32.10057026,3.928142076,0.3597543987,,73.95960258,4.220405248e-07,8.570549863e-06,6.738821428e-07
524.875,2.234049164,-0.304701364,-32.10057081,3.928142109,0.3597549609,,73.95960262,5.949862797e-07,8.262552585e-06,6.51803524e-07
524.975,2.234049258,-0.3047016607,-32.10057032,3.928142184,0.3597558393,,73.95960269,8.036932338e-07,7.88878812e-06,6.238709604e-07
525.075,2.234049355,-0.3047020797,-32.10057019,3.92814227,0.3597566161,,73.95960275,9.180531248e-07,7.633910168e-06,6.033744416e-07
525.175,2.234049448,-0.3047023489,-32.10057048,3.928142366,0.3597573708,,73.95960281,9.999869999e-07,7.455709096e-06,5.905185746e-07
525.275,2.234049475,-0.30470279,-32.10057033,3.928142468,0.3597581114,,73.95960287,1.052752761e-06,7.338372815e-06,5.811082485e-07
525.375,2.234049524,-0.3047032006,-32.10057025,3.928142575,0.3597588411,,73.95960293,1.080774237e-06,7.243676014e-06,5.738790375e-07
525.475,2.234049668,-0.3047035246,-32.10057032,3.928142684,0.3597595625,,73.95960299,1.1077784e-06,7.183085519e-06,5.696367732e-07
525.575,2.234049766,-0.3047039433,-32.10057089,3.928142796,0.3597602781,,73.95960304,1.128886666e-06,7.127234785e-06,5.657028115e-07
525.675,2.23404978,-0.3047043855,-32.10057017,3.928142909,0.3597609898,,73.9596031,1.141839541e-06,7.108697368e-06,5.632252042e-07
525.775,2.234049753,-0.3047047276,-32.10057013,3.928143022,0.3597616983,,73.95960315,1.147144823e-06,7.079440159e-06,5.612482819e-07
525.875,2.23404996,-0.3047050918,-32.10057051,3.928143137,0.3597624046,,73.95960321,1.142006846e-06,7.063001622e-06,5.598815402e-07
525.975,2.234050017,-0.3047054888,-32.10057024,3.928143251,0.3597631099,,73.95960327,1.144928439e-06,7.031867789e-06,5.580889523e-07
526.075,2.234050076,-0.3047058495,-32.10057057,3.928143366,0.3597638137,,73.95960332,1.147773554e-06,7.040791418e-06,5.5862245e-07
526.175,2.234050183,-0.3047062339,-32.10057076,3.92814348,0.3597645169,,73.95960338,1.142321212e-06,7.028858959e-06,5.575840448e-07
526.275,2.23405017,-0.3047067895,-32.10057055,3.928143595,0.3597652198,,73.95960343,1.1581829e-06,7.016288447e-06,5.565559676e-07
526.375,2.234050254,-0.3047070995,-32.10057047,3.92814371,0.3597659214,,73.95960349,1.147897142e-06,7.013327797e-06,5.575786177e-07
526.475,2.234050345,-0.3047074852,-32.10057018,3.928143825,0.3597666235,,73.95960354,1.147989661e-06,7.006066409e-06,5.558258418e-07
526.575,2.234050421,-0.3047078144,-32.10057017,3.928143939,0.359767324,,73.9596036,1.150440797e-06,7.01227658e-06,5.565030722e-07
526.675,2.234050444,-0.3047082739,-32.10057046,3.928144054,0.3597680259,,73.95960366,1.153519359e-06,7.025976301e-06,5.571836063e-07
526.775,2.234050508,-0.3047086482,-32.10057057,3.928144169,0.3597687262,,73.95960371,1.156630116e-06,7.007707525e-06,5.555322989e-07
526.875,2.23405057,-0.3047090182,-32.1005705,3.928144284,0.3597694272,,73.95960377,1.154143205e-06,7.020346148e-06,5.576372119e-07
526.975,2.234050648,-0.3047093534,-32.10057092,3.928144399,0.3597701277,,73.95960382,1.147513008e-06,6.996762908e-06,5.555881214e-07
527.075,2.234050699,-0.3047098009,-32.10057086,3.928144514,0.3597708281,,73.95960388,1.146888531e-06,7.005139749e-06,5.558034039e-07
527.175,2.23405076,-0.3047101768,-32.1005702,3.928144628,0.3597715288,,73.95960393,1.143813704e-06,6.997704208e-06,5.55425971e-07
527.275,2.234050978,-0.3047085102,-32.10057016,3.928144743,0.359772229,,73.95960399,1.141939619e-06,7.20425999e-06,5.723743797e-07
527.375,2.234968531,-0.3048559077,-32.10052287,3.928128839,0.3597702728,,73.95960375,-0.0005410349216,-8.183711052e-05,-9.21839925e-06
527.475,2.235771742,-0.3050369823,-32.10048251,3.928008921,0.3597515675,,73.95960167,-0.00212902363,-0.0003646291234,-3.960015521e-05
527.575,2.236341902,-0.3049932585,-32.10044176,3.927686035,0.3596992141,,73.95959589,-0.00464364777,-0.0007115549444,-7.981021336e-05
527.675,2.23625052,-0.3049422531,-32.1004382,3.927089782,0.3596119754,,73.95958597,-0.007569728885,-0.001060931905,-0.0001223350991
527.775,2.235581318,-0.3049097317,-32.10063785,3.926196001,0.3594902807,,73.9595718,-0.01053955647,-0.001398788219,-0.00016417124
527.875,2.234700405,-0.3048198874,-32.10083537,3.925011903,0.3593351512,,73.95955351,-0.01333104252,-0.001726237487,-0.0002042486081
527.975,2.233719255,-0.3045242795,-32.10063409,3.923562382,0.3591475992,,73.95953132,-0.01581522705,-0.002010743141,-0.0002393564821
528.075,2.232452447,-0.3043170799,-32.10087224,3.921882974,0.358932444,,73.95950578,-0.01787803045,-0.0022896898,-0.0002718140465
528.175,2.2309772,-0.3042990859,-32.10047959,3.920015866,0.3586924775,,73.95947733,-0.01952336466,-0.002524587231,-0.0002986323218
528.275,2.229474696,-0.3041392856,-32.1009542,3.918002092,0.3584326238,,73.95944658,-0.02078906018,-0.002692428027,-0.0003182248223
528.375,2.227837877,-0.303923974,-32.10123401,3.915880024,0.3581568357,,73.95941403,-0.02165220117,-0.002824352683,-0.0003329024171
528.475,2.226310917,-0.3037633842,-32.10133552,3.913688013,0.3578717077,,73.95938039,-0.02217075562,-0.002898816854,-0.0003412977031
528.575,2.224905151,-0.3035524232,-32.10124698,3.911458195,0.3575803407,,73.95934609,-0.0223963994,-0.002950077301,-0.000346359017
528.675,2.223426783,-0.3033641591,-32.10137968,3.909218992,0.3572856122,,73.95931148,-0.0223515387,-0.002960324712,-0.0003468105444
528.775,2.221987917,-0.3031418576,-32.10142054,3.906994008,0.3569897156,,73.95927687,-0.02209214321,-0.002947980456,-0.0003443881118
528.875,2.220595232,-0.3029595129,-32.10145268,3.904804055,0.3566972872,,73.95924272,-0.02164191056,-0.002896077773,-0.0003378960147
528.975,2.219280306,-0.30277788,-32.10160788,3.902666009,0.3564103876,,73.95920929,-0.02104731735,-0.002831999237,-0.0003297145775
529.075,2.218024003,-0.3026141275,-32.10170265,3.900593359,0.3561314994,,73.95917682,-0.02033241966,-0.002745288933,-0.0003191549122
529.175,2.216804166,-0.3024379948,-32.10162367,3.898596257,0.3558615591,,73.95914545,-0.01952804301,-0.002640821943,-0.0003067596699
529.275,2.215700923,-0.3022927707,-32.10185606,3.896682577,0.3556019681,,73.95911534,-0.01866451018,-0.002538995367,-0.0002942729762
529.375,2.214673897,-0.3020682584,-32.10189721,3.894857256,0.3553540428,,73.95908659,-0.01777322651,-0.002376347311,-0.0002769309632
529.475,2.213614237,-0.3021091749,-32.10190502,3.893123091,0.3551212789,,73.95905951,-0.01682904986,-0.002281496805,-0.0002645858321
529.575,2.212793867,-0.3017254073,-32.10237716,3.891484036,0.354896755,,73.95903356,-0.01587910884,-0.002173050612,-0.0002511703843
529.675,2.211859293,-0.3018179769,-32.10221002,3.88993911,0.3546856379,,73.95900915,-0.01494197848,-0.002043400053,-0.0002361831915
529.775,2.211084246,-0.3015465132,-32.10213544,3.88848825,0.3544856686,,73.9589861,-0.01401107923,-0.001910225905,-0.0002209680203
529.875,2.210304552,-0.3015608905,-32.10223601,3.887129354,0.3542986025,,73.95896453,-0.01309279193,-0.001818824765,-0.0002090633422
529.975,2.209611695,-0.3015480264,-32.10233181,3.885859749,0.3541249457,,73.95894447,-0.01222811868,-0.001669959019,-0.0001929879769
530.075,2.208948254,-0.3012803244,-32.1024073,3.884676919,0.3539615829,,73.95892566,-0.01135448391,-0.001554624577,-0.0001794788797
530.175,2.208405654,-0.3012919725,-32.10237136,3.883578903,0.3538086838,,73.95890811,-0.0105441584,-0.001479476166,-0.0001694170233
530.275,2.207945108,-0.3010437599,-32.10271911,3.882560176,0.3536656667,,73.95889174,-0.009777531068,-0.001356694985,-0.000155898625
530.375,2.207360667,-0.3011610553,-32.10244082,3.881615704,0.3535353917,,73.95887674,-0.00904622528,-0.00126642733,-0.0001450833794
530.475,2.206900697,-0.3010958637,-32.10242339,3.880743273,0.3534133167,,73.95886275,-0.008351649435,-0.001169946671,-0.0001339848386
530.575,2.206497131,-0.3010196262,-32.10250693,3.879938534,0.3533002628,,73.95884982,-0.007696228237,-0.001082417695,-0.0001237867698
530.675,2.206105822,-0.3009962308,-32.10251186,3.879196866,0.3531980679,,73.95883806,-0.007088617356,-0.0009905862886,-0.0001135072514
530.775,2.205669094,-0.3009233699,-32.10278124,3.878514773,0.3531021605,,73.95882709,-0.006502276601,-0.0009189362693,-0.0001049036171
530.875,2.205498895,-0.3008063938,-32.10261164,3.87788907,0.3530149209,,73.95881709,-0.005994499418,-0.0007913837669,-9.238477364e-05
530.975,2.20512947,-0.3009567754,-32.10264427,3.877311396,0.3529398815,,73.95880828,-0.005509756704,-0.0007424366252,-8.607065616e-05
531.075,2.204875715,-0.3008075071,-32.10262368,3.876783304,0.3528657563,,73.9587998,-0.005021765579,-0.0007214227736,-8.190628977e-05
531.175,2.204644613,-0.3007605016,-32.10263966,3.876301454,0.3527964009,,73.95879193,-0.004586169065,-0.0006597157202,-7.48634843e-05
531.275,2.204498632,-0.3005846564,-32.10297174,3.875860568,0.3527347671,,73.95878487,-0.00419897363,-0.0005816297191,-6.680575116e-05
531.375,2.204202065,-0.3008186759,-32.10271058,3.875456174,0.3526821584,,73.9587787,-0.00384908028,-0.0005164413784,-5.994103351e-05
531.475,2.204031648,-0.300688707,-32.10268496,3.875088283,0.3526300551,,73.95877276,-0.003487700503,-0.0005090151036,-5.748766384e-05
531.575,2.2038768,-0.3006533519,-32.10269357,3.874754323,0.3525812265,,73.95876725,-0.003171066373,-0.0004628585906,-5.227018467e-05
531.675,2.203730639,-0.3006317359,-32.10270381,3.874450523,0.3525370552,,73.95876226,-0.002885648923,-0.0004174587964,-4.727394537e-05
531.775,2.20359574,-0.300613308,-32.10271291,3.874174088,0.3524972275,,73.95875774,-0.002625132698,-0.0003764047341,-4.27437983e-05
531.875,2.203416677,-0.3004841677,-32.10261448,3.873922815,0.3524617137,,73.95875369,-0.002372666931,-0.0003003944483,-3.555347768e-05
531.975,2.203366963,-0.3005907776,-32.10272728,3.873695133,0.3524304768,,73.95875009,-0.002164695552,-0.0003076757357,-3.503452702e-05
532.075,2.203290079,-0.3005205768,-32.10271339,3.873487268,0.3524024712,,73.95874685,-0.001990676875,-0.0002245895624,-2.770401672e-05
532.175,2.203169758,-0.300569986,-32.10273476,3.873295852,0.3523818616,,73.95874426,-0.001821285295,-0.0001933258453,-2.44073715e-05
532.275,2.203059081,-0.3005746919,-32.10275553,3.873123106,0.3523595935,,73.95874164,-0.001617817376,-0.0002445125691,-2.73093946e-05
532.375,2.203002737,-0.3005346863,-32.10275673,3.872969291,0.3523358546,,73.95873901,-0.001449835884,-0.0002251806878,-2.494196222e-05
532.475,2.202942953,-0.3005232733,-32.10276066,3.872831015,0.3523145375,,73.95873664,-0.001306977799,-0.0001992298355,-2.219281838e-05
532.575,2.202885133,-0.3005154285,-32.10276365,3.872706238,0.3522957115,,73.95873454,-0.001180259271,-0.0001758758835,-1.972842413e-05
532.675,2.202831631,-0.3005085661,-32.10276762,3.872593553,0.3522790814,,73.95873267,-0.001065689956,-0.0001554813479,-1.755610276e-05
532.775,2.202782906,-0.3005024378,-32.10277093,3.872491846,0.3522643696,,73.958731,-0.0009613404484,-0.0001376482385,-1.563504031e-05
532.875,2.202739121,-0.3004969273,-32.10277385,3.872400147,0.3522513412,,73.95872952,-0.0008661374397,-0.0001219460106,-1.392632563e-05
532.975,2.202699854,-0.3004919767,-32.10277668,3.87231758,0.3522397966,,73.95872819,-0.000779296056,-0.0001080633877,-1.240180621e-05
533.075,2.202664699,-0.3004875699,-32.10277872,3.872243337,0.3522295686,,73.95872702,-0.0007001818219,-9.572180796e-05,-1.10366147e-05
533.175,2.202633266,-0.3004835071,-32.10278107,3.872176676,0.3522205133,,73.95872597,-0.0006281756847,-8.468186836e-05,-9.810909983e-06
533.275,2.202605259,-0.3004800657,-32.10278277,3.872116908,0.3522125051,,73.95872504,-0.0005627563198,-7.483735205e-05,-8.709803983e-06
533.375,2.202580298,-0.3004768306,-32.10278388,3.872063402,0.3522054348,,73.95872422,-0.0005033829606,-6.599477149e-05,-7.717577134e-06
533.475,2.202558195,-0.3004742017,-32.10278628,3.872015575,0.3521992063,,73.95872349,-0.0004495580181,-5.80765087e-05,-6.825700323e-06
533.575,2.202538481,-0.3004717907,-32.10278805,3.871972893,0.3521937323,,73.95872284,-0.0004007940366,-5.094895195e-05,-6.021257212e-06
533.675,2.202521073,-0.3004696971,-32.1027891,3.871934871,0.3521889372,,73.95872227,-0.0003566926111,-4.453421611e-05,-5.296162371e-06
533.775,2.202505619,-0.3004677705,-32.10278981,3.871901063,0.3521847532,,73.95872178,-0.0003168111953,-3.877258101e-05,-4.643483495e-06
533.875,2.20249199,-0.3004662419,-32.10279065,3.871871063,0.3521811191,,73.95872134,-0.0002807952339,-3.357273003e-05,-4.054337042e-06
533.975,2.202479997,-0.3004649544,-32.10279098,3.8718445,0.3521779803,,73.95872096,-0.0002482963692,-2.890518425e-05,-3.524650761e-06
534.075,2.202469576,-0.3004637746,-32.10279209,3.871821037,0.3521752856,,73.95872062,-0.0002190053362,-2.470303783e-05,-3.049600849e-06
534.175,2.202460476,-0.3004629823,-32.10279337,3.871800369,0.3521729916,,73.95872034,-0.0001926145478,-2.09334725e-05,-2.620880626e-06
534.275,2.20245245,-0.3004622724,-32.10279403,3.871782217,0.3521710577,,73.95872009,-0.0001688627945,-1.75398444e-05,-2.234963462e-06
534.375,2.196282122,-0.2990684722,-32.10302457,3.871801643,0.3521789441,,73.95872081,0.002187659102,0.0005679097545,5.526889287e-05
534.475,2.193033773,-0.2991081141,-32.10342328,3.872444233,0.3523165126,,73.95873478,0.01199063242,0.002278947757,0.0002384679484
534.575,2.195327112,-0.2997432948,-32.10310486,3.874117112,0.3526079248,,73.958766,0.02199594372,0.003575111003,0.0003907265577
534.675,2.199269397,-0.3003637867,-32.10291235,3.876685341,0.3530072952,,73.95881023,0.02953222214,0.004405605222,0.0004942766351
534.775,2.203409275,-0.3009458721,-32.10306378,3.879881221,0.3534720329,,73.9588628,0.03437892223,0.004888598153,0.0005570834274
534.875,2.207095015,-0.3013833869,-32.1021138,3.883455021,0.35397249,,73.95892013,0.03700437649,0.005113074951,0.0005884120966
534.975,2.210563614,-0.3015751745,-32.10257563,3.88721394,0.3544867638,,73.95897952,0.03803676195,0.00517348762,0.0005988042779
535.075,2.21352552,-0.301961504,-32.10243987,3.891022466,0.3550022221,,73.9590393,0.03798234688,0.005127817842,0.0005953174016
535.175,2.216042463,-0.3025032745,-32.10165473,3.894791381,0.3555086019,,73.95909819,0.03723778293,0.005002449713,0.000582031428
535.275,2.218505176,-0.3026013535,-32.10202554,3.898464735,0.3559999864,,73.95915546,0.03607588485,0.004823193307,0.0005623911296
535.375,2.220653156,-0.3028761752,-32.10185002,3.902010094,0.3564719765,,73.95921059,0.03468287779,0.004617297518,0.0005394306787
535.475,2.222506131,-0.3034089254,-32.10114507,3.905409312,0.3569250372,,73.9592635,0.03316663163,0.004416791808,0.0005162025516
535.575,2.224448502,-0.3033920412,-32.1015819,3.90865678,0.3573536807,,73.95931376,0.03164851785,0.004165542591,0.0004889967019
535.675,2.226090285,-0.3038433301,-32.10134622,3.911751325,0.3577616735,,73.95936164,0.03013485507,0.003938756198,0.0004636617738
535.775,2.227665979,-0.3040248489,-32.1009912,3.914698798,0.3581440983,,73.95940678,0.02869926558,0.003683280487,0.0004364687598
535.875,2.229195625,-0.3041954767,-32.10094816,3.91750514,0.3585021485,,73.9594493,0.02732730877,0.003456402197,0.0004118068019
535.975,2.232966139,-0.3047464487,-32.10076543,3.920164298,0.3588352136,,73.95948912,0.0251783219,0.003100962964,0.0003730401348
536.075,2.235843777,-0.3051008191,-32.10023779,3.922459664,0.3591077706,,73.95952234,0.0200634759,0.002312872588,0.000284978942
536.175,2.236326506,-0.3050314997,-32.09987575,3.924217115,0.3593074483,,73.95954708,0.01475385034,0.001664617221,0.0002067828015
536.275,2.236053264,-0.3047806867,-32.10036354,3.925483348,0.3594497431,,73.95956479,0.01040195832,0.001208931423,0.0001485806431
536.375,2.235538042,-0.3048964149,-32.10053217,3.926366609,0.3595541221,,73.95957754,0.007162112551,0.000856027142,0.00010416777
536.475,2.235119018,-0.3048138564,-32.10047093,3.926970475,0.3596271819,,73.95958639,0.004858275754,0.0006033567532,7.244304628e-05
536.575,2.234848783,-0.3047887685,-32.10052274,3.927376143,0.3596793019,,73.95959258,0.003229479283,0.0004344519675,5.077169143e-05
536.675,2.234590765,-0.3047728603,-32.10053788,3.927645671,0.3597169017,,73.95959692,0.002143226287,0.0003141536069,3.571985202e-05
536.775,2.234463409,-0.3047600081,-32.10046772,3.927826624,0.3597441163,,73.95959999,0.001451743354,0.000228040228,2.538936024e-05
536.875,2.234339199,-0.3047280431,-32.10054031,3.927945568,0.359766353,,73.95960235,0.0009143122194,0.0002258205172,2.242496527e-05
536.975,2.234194198,-0.3047653557,-32.10055185,3.928023721,0.3597868357,,73.95960436,0.0006441951912,0.0001773171306,1.72289453e-05
537.075,2.234211129,-0.3047646529,-32.10055391,3.928076028,0.359802359,,73.95960584,0.0003848529458,0.0001309231909,1.225075222e-05
537.175,2.234082209,-0.3048687451,-32.10045442,3.928106671,0.35981338,,73.95960687,0.000241533628,5.770990933e-05,5.770079672e-06
537.275,2.234129431,-0.304671303,-32.1005406,3.928127487,0.3598167978,,73.95960724,0.0001580812424,5.612426e-05,5.212337679e-06
537.375,2.234033543,-0.3048709816,-32.10033107,3.928139869,0.3598226594,,73.95960776,9.792990096e-05,3.833108577e-05,3.508660835e-06
537.475,2.234030836,-0.3048643311,-32.10037758,3.928147803,0.3598264997,,73.95960811,6.387786905e-05,2.736556678e-05,2.471825476e-06
537.575,2.234070129,-0.3047118143,-32.10045127,3.928153156,0.3598290274,,73.95960833,3.919215944e-05,3.36216831e-05,2.833880795e-06
537.675,2.234118818,-0.3046603948,-32.1008728,3.928156707,0.3598310852,,73.95960851,2.842170022e-05,1.78452127e-05,1.546674415e-06
537.775,2.234020955,-0.304858551,-32.1003761,3.928159138,0.3598327322,,73.95960865,2.026092532e-05,1.203907108e-05,1.045259779e-06
537.875,2.234107208,-0.304658053,-32.10081157,3.928160869,0.3598339002,,73.95960875,1.515659281e-05,7.859741478e-06,6.954188251e-07
537.975,2.234019558,-0.3048571976,-32.10037491,3.928162124,0.3598349418,,73.95960884,1.023143673e-05,8.747565716e-06,7.354563213e-07
538.075,2.234037949,-0.3048228697,-32.10056125,3.928163093,0.3598356715,,73.9596089,1.14085905e-05,-4.351228486e-06,-2.792346035e-07
538.175,2.234106765,-0.3046511088,-32.10080052,3.928163846,0.3598362726,,73.95960895,7.491727612e-06,3.806777333e-06,3.381751713e-07
538.275,2.234077341,-0.3046841169,-32.10053762,3.928164434,0.3598368866,,73.95960901,3.068089569e-06,1.455868006e-05,1.154839598e-06
538.375,2.234018078,-0.3048496822,-32.10035056,3.928164895,0.3598375801,,73.95960906,4.466073906e-06,4.909098513e-06,4.064789638e-07
538.475,2.234038406,-0.3048231378,-32.10056053,3.928165288,0.3598381856,,73.95960911,5.904930554e-06,-4.011378395e-06,-2.811820175e-07
538.575,2.234045982,-0.3048128899,-32.10059983,3.92816564,0.3598386729,,73.95960915,6.760294842e-06,-6.609295505e-06,-4.812847904e-07
538.675,2.234046779,-0.3048124469,-32.10059958,3.928166008,0.3598391099,,73.95960919,6.459987767e-06,-6.088212772e-06,-4.420431359e-07
538.775,2.234047058,-0.3048128161,-32.10059972,3.928166332,0.3598396071,,73.95960923,5.917265392e-06,-5.491932276e-06,-3.981642569e-07
538.875,2.234047042,-0.3048132423,-32.1005991,3.928166601,0.3598401574,,73.95960927,5.415973507e-06,-5.026944847e-06,-3.643514415e-07
538.983,2.234360174,-0.3046838061,-32.10074113,3.928166345,0.3598401968,,73.95960927,-5.912770152e-05,-7.684417878e-06,-9.062613839e-07
539.092,2.235621179,-0.3050802079,-32.10049573,3.928065003,0.3598257084,,73.95960761,-0.001777083763,-0.0002623693068,-2.976209543e-05
539.192,2.236265649,-0.3050355154,-32.10044339,3.927787355,0.3597834415,,73.95960286,-0.004103745971,-0.0006092883446,-6.900232415e-05
539.292,2.23622037,-0.3048903051,-32.10009632,3.927249845,0.3597056603,,73.95959399,-0.006935644273,-0.0009904710599,-0.000113527748
539.392,2.235746316,-0.305028921,-32.1004938,3.926423252,0.3595928558,,73.95958087,-0.009837191869,-0.001335486335,-0.0001555749218
539.492,2.234904072,-0.3048237485,-32.10074662,3.925310008,0.3594458022,,73.95956358,-0.01262541099,-0.001634014388,-0.0001933789183
539.592,2.233993581,-0.3045413664,-32.10099907,3.923930133,0.3592683242,,73.95954254,-0.01513110071,-0.001921892405,-0.0002288687057
539.733,2.232651472,-0.30456936,-32.10070619,3.922316465,0.3590635012,,73.95951814,-0.01725439654,-0.002206272142,-0.0002620668323
539.8,2.231156765,-0.3044067596,-32.10056447,3.920351459,0.3588134967,,73.9594884,-0.01907784917,-0.002445706819,-0.0002901693362
539.9,2.224277299,-0.3031420084,-32.10169995,3.91841226,0.3585684968,,73.95945919,-0.01832139386,-0.002140144701,-0.0002622792014
540,2.219575595,-0.3028238569,-32.10151589,3.916911806,0.3584133532,,73.95943928,-0.01045937774,-0.0008466181403,-0.0001203920968
540.1,2.21983699,-0.3031094547,-32.10154493,3.916274603,0.3583828299,,73.9594336,-0.001692032504,0.0002381724558,9.826404747e-06
540.2,2.221577404,-0.3033679548,-32.10143038,3.916454206,0.3584437481,,73.95943929,0.00557942165,0.001001608565,0.0001071804736
540.3,2.223658439,-0.3037459687,-32.10095682,3.917274295,0.3585714125,,73.95945351,0.01094505518,0.001571242445,0.0001795276878
540.4,2.225754156,-0.3040020483,-32.10115846,3.918552088,0.3587430921,,73.95947356,0.01467732161,0.001907869793,0.0002252296461
540.5,2.22765291,-0.3040921818,-32.1011371,3.920143023,0.3589428633,,73.95949742,0.0171544959,0.002104385783,0.0002535000044
540.6,2.231262746,-0.3047370912,-32.10094087,3.921928963,0.3591597562,,73.95952365,0.01812305421,0.002112157241,0.0002591975947
540.7,2.234647483,-0.304955184,-32.10073561,3.923634924,0.3593488105,,73.95954728,0.01537375019,0.001598192161,0.0002047860039
540.8,2.235542605,-0.3048802601,-32.1005053,3.924998454,0.3594900269,,73.95956541,0.01160160185,0.001214630097,0.0001552399725
540.9,2.235503657,-0.304862958,-32.10051324,3.926001458,0.3595947891,,73.95957881,0.008310270825,0.0008854221277,0.0001124177684
541,2.235288727,-0.3048635413,-32.10032453,3.926709997,0.3596681236,,73.95958823,0.005780082181,0.0005859637745,7.586054267e-05
541.1,2.234966158,-0.3048077782,-32.10051841,3.927197588,0.3597180196,,73.95959466,0.003921620223,0.0004117832322,5.258787538e-05
541.2,2.234689442,-0.3047884096,-32.10053226,3.927526274,0.3597535827,,73.95959915,0.00262661407,0.0002967238319,3.686221407e-05
541.3,2.234401265,-0.3047794916,-32.10062532,3.927746195,0.3597792857,,73.95960231,0.001779562087,0.0002149017868,2.605739673e-05
541.4,2.234416647,-0.3046583342,-32.10049657,3.927895429,0.3597980912,,73.95960455,0.001165912734,0.0001878535919,2.075734297e-05
541.5,2.234202998,-0.3047704161,-32.10053366,3.927990843,0.3598171355,,73.95960654,0.0007688051368,0.000176265644,1.77931201e-05
541.6,2.234265596,-0.3047829645,-32.1005756,3.928056712,0.3598327687,,73.9596081,0.0005196926881,0.0001335213691,1.31500812e-05
541.7,2.234174471,-0.304778669,-32.10056057,3.928097524,0.3598444101,,73.95960923,0.0003006642839,9.814968033e-05,9.248275752e-06
541.8,2.234100248,-0.3047938976,-32.1005681,3.928122714,0.3598500223,,73.9596098,0.000210306269,1.111463387e-05,1.963098619e-06
541.9,2.234098255,-0.304756183,-32.1005728,3.928140819,0.3598503215,,73.95960992,0.0001491720364,-9.353604901e-07,7.026545983e-07
542,2.234092078,-0.3047526226,-32.10057198,3.928153506,0.3598502533,,73.95960998,0.0001031455698,1.02886137e-07,5.445644091e-07
542.1,2.234086156,-0.3047528602,-32.10057124,3.92816222,0.3598503477,,73.95961003,7.032987742e-05,1.879263033e-06,5.138014865e-07
542.2,2.234080531,-0.3047882507,-32.10058729,3.928167941,0.3598511846,,73.95961012,4.013073114e-05,1.846762621e-05,1.656886207e-06
542.3,2.234066174,-0.3047778649,-32.10056154,3.928171091,0.3598529924,,73.95961028,2.699047867e-05,6.31707341e-06,6.359742981e-07
542.4,2.234066358,-0.3047715871,-32.10057398,3.928173136,0.3598542107,,73.95961039,1.923284735e-05,2.481688127e-06,2.95352296e-07
542.5,2.234064226,-0.3047688767,-32.10056712,3.928174501,0.3598552257,,73.95961047,1.45083317e-05,3.120872668e-07,1.01163028e-07
542.6,2.234063653,-0.3047688662,-32.10056724,3.928175463,0.3598561074,,73.95961055,1.121119668e-05,-4.487898478e-07,2.439864498e-08
542.7,2.23406412,-0.3047714035,-32.10057346,3.928176176,0.3598569113,,73.95961062,8.51757822e-06,6.004221027e-08,5.00612224e-08
542.8,2.234061004,-0.3047758584,-32.10056111,3.928176703,0.3598576869,,73.95961068,6.267366038e-06,1.093504802e-06,1.20455316e-07
542.9,2.234052972,-0.3047995953,-32.10049327,3.928177246,0.359858206,,73.95961072,2.288398715e-06,9.793625753e-06,7.764279847e-07
543,2.23410124,-0.3046480364,-32.10051959,3.928177743,0.3598584637,,73.95961075,-2.671311845e-06,2.879678739e-05,2.239361661e-06
543.1,2.23406616,-0.3047640163,-32.10057105,3.928177989,0.3598591919,,73.9596108,5.946674297e-06,-1.65389034e-06,-9.750919912e-08
543.2,2.234064158,-0.3047791733,-32.10057576,3.92817826,0.359859942,,73.95961086,2.675930457e-06,3.57888188e-06,2.963684348e-07
543.3,2.234068612,-0.3047595265,-32.10057014,3.928178739,0.3598599301,,73.95961087,6.274904378e-06,-1.517580826e-06,-8.508791012e-08
543.4,2.234065911,-0.3047684369,-32.10057138,3.928178846,0.3598608895,,73.95961094,3.765267308e-06,6.21772599e-07,7.021625489e-08
543.5,2.234069657,-0.3047590816,-32.10056903,3.928179349,0.3598608399,,73.95961094,5.813914e-06,-4.714274623e-07,-4.664104921e-09
543.6,2.234066295,-0.3047691173,-32.10057108,3.928179389,0.3598619131,,73.95961102,2.951896922e-06,1.725924058e-06,1.525036493e-07
543.7,2.234069872,-0.3047599936,-32.10057018,3.92817981,0.359861961,,73.95961103,5.052776154e-06,3.488657281e-07,5.545796356e-08
543.8,2.234065625,-0.3047811377,-32.10057528,3.928179906,0.3598630064,,73.95961111,3.440093305e-07,6.795820468e-06,5.361785761e-07
543.9,2.23406912,-0.3047620607,-32.10057021,3.928180146,0.3598632841,,73.95961113,3.97098093e-06,9.822539563e-07,9.867749357e-08
544,2.234071087,-0.3047604102,-32.10056888,3.92818058,0.3598634185,,73.95961114,4.462826643e-06,1.997596942e-06,1.808712944e-07
544.1,2.234071772,-0.3047607458,-32.1005694,3.928181007,0.3598636806,,73.95961117,3.961469388e-06,3.312117606e-06,2.809555583e-07
544.2,2.234066293,-0.3047828599,-32.10057488,3.92818096,0.3598650017,,73.95961127,-1.282451735e-06,9.214927893e-06,7.171851812e-07
544.3,2.2340693,-0.304763843,-32.10056936,3.928181042,0.3598654902,,73.95961131,2.502362462e-06,2.747843327e-06,2.292793688e-07
544.4,2.234071157,-0.3047620926,-32.10056937,3.928181344,0.3598657774,,73.95961133,3.325360655e-06,3.268133897e-06,2.750098576e-07
544.5,2.234071858,-0.3047623652,-32.10056867,3.928181672,0.3598661495,,73.95961136,3.144633e-06,4.215463334e-06,3.478616818e-07
544.6,2.234072136,-0.3047628882,-32.1005684,3.928181966,0.3598666071,,73.9596114,2.690880704e-06,4.957162946e-06,4.031100021e-07
544.7,2.234072183,-0.3047632908,-32.10056855,3.928182215,0.3598671288,,73.95961144,2.261635211e-06,5.490004654e-06,4.430526566e-07
544.8,2.23407219,-0.3047637083,-32.10056857,3.928182424,0.3598676965,,73.95961149,1.922129662e-06,5.872777118e-06,4.714472456e-07
544.9,2.234072245,-0.3047641213,-32.10056904,3.928182605,0.3598682978,,73.95961154,1.671617969e-06,6.15544585e-06,4.926122885e-07
545,2.234072251,-0.3047646601,-32.10056841,3.928182763,0.3598689235,,73.95961159,1.491971337e-06,6.353141847e-06,5.072538863e-07
545.1,2.234072268,-0.3047650601,-32.10056838,3.928182906,0.3598695664,,73.95961164,1.371836779e-06,6.498880841e-06,5.17415838e-07
545.2,2.234072317,-0.3047654916,-32.10056874,3.92818304,0.3598702212,,73.95961169,1.300637641e-06,6.596177065e-06,5.240540088e-07
545.3,2.23407241,-0.3047659027,-32.10056855,3.928183167,0.3598708849,,73.95961174,1.240506171e-06,6.682815615e-06,5.303089186e-07
545.4,2.234072446,-0.3047662163,-32.10056822,3.928183288,0.3598715553,,73.9596118,1.196257459e-06,6.742049568e-06,5.3499635e-07
545.5,2.234072488,-0.3047665494,-32.10056841,3.928183406,0.35987223,,73.95961185,1.176944355e-06,6.770994956e-06,5.376462629e-07
545.6,2.234072647,-0.3047669606,-32.10056888,3.928183523,0.359872908,,73.9596119,1.147052517e-06,6.791369073e-06,5.391034795e-07
545.7,2.234072596,-0.3047673794,-32.1005683,3.928183637,0.3598735884,,73.95961196,1.14481645e-06,6.814747819e-06,5.41486529e-07
545.8,2.234072697,-0.3047677011,-32.10056812,3.928183751,0.3598742706,,73.95961201,1.135053349e-06,6.81345563e-06,5.41239185e-07
545.9,2.234072753,-0.3047681325,-32.10056877,3.928183865,0.3598749536,,73.95961206,1.13852487e-06,6.836072966e-06,5.426457648e-07
546,2.234072817,-0.3047685698,-32.10056808,3.928183978,0.3598756376,,73.95961212,1.130898918e-06,6.835923949e-06,5.430758437e-07
546.1,2.234072883,-0.3047689557,-32.10056863,3.928184091,0.3598763214,,73.95961217,1.130105955e-06,6.842278756e-06,5.434586483e-07
546.2,2.23407297,-0.3047692511,-32.1005685,3.928184204,0.3598770063,,73.95961223,1.133220567e-06,6.860212386e-06,5.442383799e-07
546.3,2.234072953,-0.3047697126,-32.10056758,3.928184317,0.3598776916,,73.95961228,1.128633895e-06,6.843839523e-06,5.427105061e-07
546.4,2.234073049,-0.3047700483,-32.10056834,3.928184429,0.3598783763,,73.95961234,1.127453662e-06,6.863940013e-06,5.442107661e-07
546.5,2.234073128,-0.3047704451,-32.10056829,3.928184542,0.3598790622,,73.95961239,1.129069503e-06,6.849331772e-06,5.435805481e-07
546.6,2.234073166,-0.3047708697,-32.10056841,3.928184654,0.3598797476,,73.95961244,1.121477661e-06,6.843016689e-06,5.426027203e-07
546.7,2.234073291,-0.3047712029,-32.10056902,3.928184766,0.3598804327,,73.9596125,1.12624779e-06,6.85928341e-06,5.441030879e-07
546.8,2.23407336,-0.3047716175,-32.10056855,3.928184879,0.3598811188,,73.95961255,1.12334663e-06,6.854140804e-06,5.438126149e-07
546.9,2.234073414,-0.3047720381,-32.1005683,3.928184991,0.3598818041,,73.95961261,1.12210817e-06,6.847749021e-06,5.428487614e-07
547,2.234073408,-0.3047723476,-32.10056782,3.928185103,0.3598824889,,73.95961266,1.122218934e-06,6.867916458e-06,5.445265491e-07
547.1,2.234073542,-0.3047726775,-32.10056835,3.928185215,0.3598831746,,73.95961271,1.130837122e-06,6.857666186e-06,5.445992708e-07
547.2,2.234073572,-0.3047731681,-32.10056826,3.928185328,0.3598838596,,73.95961277,1.121114545e-06,6.840245467e-06,5.423029457e-07
547.3,2.23407359,-0.3047734807,-32.10056803,3.92818544,0.3598845443,,73.95961282,1.126080726e-06,6.85596848e-06,5.438902268e-07
547.4,2.234073711,-0.3047739041,-32.10056842,3.928185552,0.35988523,,73.95961288,1.125060006e-06,6.847572242e-06,5.434117053e-07
547.5,2.234073729,-0.3047743012,-32.10056828,3.928185665,0.3598859149,,73.95961293,1.124324711e-06,6.83227666e-06,5.421416679e-07
547.6,2.234073796,-0.3047747362,-32.10056826,3.928185777,0.3598865998,,73.95961299,1.126169505e-06,6.85323934e-06,5.444809605e-07
547.7,2.234073923,-0.3047750863,-32.10056837,3.92818589,0.3598872849,,73.95961304,1.12688019e-06,6.851698709e-06,5.4317578e-07
547.8,2.23407395,-0.3047754895,-32.10056837,3.928186002,0.3598879692,,73.95961309,1.123344369e-06,6.837828756e-06,5.433840556e-07
547.9,2.234074011,-0.3047758246,-32.10056822,3.928186114,0.3598886541,,73.95961315,1.119796325e-06,6.858045541e-06,5.448603781e-07
548,2.234074057,-0.3047761998,-32.10056813,3.928186226,0.3598893389,,73.9596132,1.120468108e-06,6.837643414e-06,5.426215646e-07
548.1,2.234074108,-0.3047765747,-32.10056795,3.928186338,0.3598900228,,73.95961326,1.119139879e-06,6.841544949e-06,5.424518196e-07
548.2,2.234074191,-0.3047769639,-32.10056833,3.92818645,0.3598907079,,73.95961331,1.124707373e-06,6.847073315e-06,5.432086755e-07
548.3,2.234074292,-0.3047773558,-32.10056842,3.928186562,0.3598913924,,73.95961336,1.122077792e-06,6.829972982e-06,5.421147389e-07
548.4,2.234074314,-0.3047777723,-32.10056858,3.928186674,0.3598920768,,73.95961342,1.125030544e-06,6.840564455e-06,5.425613038e-07
548.5,2.234074376,-0.3047782349,-32.10056831,3.928186786,0.3598927614,,73.95961347,1.123631328e-06,6.845251404e-06,5.427238965e-07
548.6,2.234074437,-0.3047784257,-32.10056833,3.928186898,0.3598934449,,73.95961353,1.121735666e-06,6.848254274e-06,5.431393459e-07
548.7,2.23407448,-0.3047789349,-32.10056788,3.92818701,0.3598941296,,73.95961358,1.128301271e-06,6.841137144e-06,5.423936418e-07
548.8,2.234074569,-0.3047792848,-32.1005677,3.928187123,0.3598948137,,73.95961364,1.117469629e-06,6.838097994e-06,5.421650111e-07
548.9,2.23407471,-0.3047795912,-32.10056879,3.928187235,0.3598954974,,73.95961369,1.124150614e-06,6.841621089e-06,5.432534839e-07
549,2.234074747,-0.3047800951,-32.10056865,3.928187347,0.3598961816,,73.95961374,1.119344924e-06,6.825902649e-06,5.424645743e-07
549.1,2.234074721,-0.3047804118,-32.10056792,3.928187459,0.3598968649,,73.9596138,1.119917631e-06,6.842692511e-06,5.439177321e-07
549.2,2.234074837,-0.3047808365,-32.10056828,3.928187571,0.3598975494,,73.95961385,1.122892786e-06,6.836034926e-06,5.426872538e-07
549.3,2.234074958,-0.3047813014,-32.10056892,3.928187683,0.3598982328,,73.95961391,1.120383595e-06,6.824995521e-06,5.406122392e-07
549.4,2.234074987,-0.3047815247,-32.10056837,3.928187795,0.3598989165,,73.95961396,1.121856758e-06,6.847037865e-06,5.434856094e-07
549.5,2.234075047,-0.3047819285,-32.10056828,3.928187907,0.3598995999,,73.95961401,1.125243775e-06,6.829679047e-06,5.420365738e-07
549.6,2.234075078,-0.3047823407,-32.10056813,3.928188019,0.3599002829,,73.95961407,1.125415931e-06,6.838936592e-06,5.429124449e-07
549.7,2.234075111,-0.3047827492,-32.10056819,3.928188131,0.3599009668,,73.95961412,1.117170844e-06,6.824291638e-06,5.415047968e-07
549.858,2.234075162,-0.3047828408,-32.10056799,3.928188169,0.3599011944,,73.95961414,1.117515548e-06,6.827300667e-06,5.417334087e-07
550.108,2.234075524,-0.3047852518,-32.10056922,3.928188365,0.3599024285,,73.95961424,1.205635009e-06,6.938957526e-06,5.48339827e-07
550.108,2.234075524,-0.3047852518,-32.10056922,3.928188365,0.3599024285,,73.95961424,1.205635009e-06,6.938957526e-06,5.48339827e-07
550.108,2.234075524,-0.3047852518,-32.10056922,3.928188365,0.3599024285,,73.95961424,1.205635009e-06,6.938957526e-06,5.48339827e-07
550.183,2.234075694,-0.3047854488,-32.10056868,3.928188746,0.3599046963,,73.95961442,1.042160069e-06,5.776662928e-06,4.562730406e-07
550.283,2.234075588,-0.3047849215,-32.10056831,3.928188846,0.3599052713,,73.95961446,9.719646256e-07,5.832796472e-06,4.630823975e-07
550.383,2.234075601,-0.3047851633,-32.10056817,3.928188943,0.3599058658,,73.95961451,9.813848353e-07,6.082981055e-06,4.832305988e-07
550.483,2.234075643,-0.3047855536,-32.10056827,3.928189042,0.3599064837,,73.95961456,1.008364804e-06,6.282072259e-06,4.991085328e-07
550.583,2.234075684,-0.3047860326,-32.10056836,3.928189144,0.3599071198,,73.95961461,1.03611597e-06,6.438759319e-06,5.104955168e-07
550.683,2.234075783,-0.3047865339,-32.10056851,3.928189249,0.3599077693,,73.95961466,1.06170788e-06,6.545937042e-06,5.195800286e-07
550.783,2.234075809,-0.3047868596,-32.10056807,3.928189356,0.3599084279,,73.95961471,1.076005894e-06,6.631925486e-06,5.271225581e-07
550.883,2.234075872,-0.3047872742,-32.10056836,3.928189464,0.3599090929,,73.95961476,1.089719976e-06,6.675421365e-06,5.307427743e-07
550.983,2.234075952,-0.3047875627,-32.10056825,3.928189572,0.3599097623,,73.95961482,1.095448092e-06,6.711271025e-06,5.328915347e-07
551.083,2.234075989,-0.3047880388,-32.1005681,3.928189683,0.3599104355,,73.95961487,1.104231653e-06,6.74193497e-06,5.351729225e-07
551.183,2.234076107,-0.3047883946,-32.10056821,3.928189793,0.3599111118,,73.95961492,1.104234985e-06,6.765084349e-06,5.365287375e-07
551.283,2.234076125,-0.3047887839,-32.10056791,3.928189904,0.3599117898,,73.95961498,1.115627835e-06,6.777549715e-06,5.379846264e-07
551.383,2.234076179,-0.3047891499,-32.10056787,3.928190015,0.3599124685,,73.95961503,1.114864903e-06,6.797886527e-06,5.3927206e-07
551.483,2.23407629,-0.3047896057,-32.10056793,3.928190127,0.3599131484,,73.95961509,1.118572056e-06,6.794275471e-06,5.387329941e-07
551.583,2.2340763,-0.3047899447,-32.10056807,3.928190238,0.3599138288,,73.95961514,1.125507519e-06,6.811308261e-06,5.415456792e-07
551.683,2.234076363,-0.3047902843,-32.10056807,3.92819035,0.3599145091,,73.95961519,1.11388697e-06,6.818982462e-06,5.407525604e-07
551.783,2.234076472,-0.3047906208,-32.10056835,3.928190462,0.3599151905,,73.95961525,1.121259944e-06,6.81146401e-06,5.408828661e-07
551.883,2.234076514,-0.3047911044,-32.10056813,3.928190573,0.3599158712,,73.9596153,1.115873737e-06,6.8089842e-06,5.40301933e-07
551.983,2.234076571,-0.3047914419,-32.10056764,3.928190685,0.3599165529,,73.95961535,1.1177649e-06,6.805102029e-06,5.401724455e-07
552.083,2.234076684,-0.3047918054,-32.10056807,3.928190797,0.359917234,,73.95961541,1.117735967e-06,6.820222382e-06,5.410140346e-07
552.192,2.234076772,-0.3047922952,-32.10056832,3.928190918,0.3599179749,,73.95961547,1.116763013e-06,6.818870294e-06,5.410192997e-07
552.292,2.234076736,-0.3047927026,-32.10056776,3.92819103,0.359918656,,73.95961552,1.123815248e-06,6.804321284e-06,5.395578009e-07
552.392,2.234076822,-0.3047930055,-32.10056785,3.928191142,0.3599193366,,73.95961558,1.113703359e-06,6.809909957e-06,5.402733457e-07
552.492,2.234076884,-0.3047933441,-32.10056808,3.928191253,0.3599200172,,73.95961563,1.120762252e-06,6.820378197e-06,5.411252457e-07
552.592,2.234076969,-0.3047937056,-32.10056857,3.928191365,0.359920698,,73.95961568,1.117834999e-06,6.805059449e-06,5.400522685e-07
552.7,2.234077043,-0.3047941636,-32.10056799,3.928191477,0.3599213794,,73.95961574,1.119525951e-06,6.804938237e-06,5.399217155e-07
552.8,2.234077072,-0.304794568,-32.10056787,3.928191598,0.3599221194,,73.9596158,1.11617285e-06,6.805616172e-06,5.398038157e-07
552.9,2.234077206,-0.3047949367,-32.10056804,3.92819171,0.3599228001,,73.95961585,1.112552922e-06,6.800867321e-06,5.395072098e-07
553,2.234077195,-0.3047953085,-32.10056756,3.928191821,0.3599234801,,73.9596159,1.119658844e-06,6.799929607e-06,5.3959474e-07
553.083,2.234077235,-0.3047956293,-32.10056768,3.928191895,0.359923934,,73.95961594,1.113806572e-06,6.807772612e-06,5.412206379e-07
553.183,2.234077396,-0.3047966388,-32.10056799,3.928192027,0.3599247475,,73.959616,1.144427897e-06,6.971664953e-06,5.511754515e-07
553.283,2.234077356,-0.3047965135,-32.10056719,3.92819214,0.3599254303,,73.95961606,1.115626718e-06,6.750655552e-06,5.352831829e-07
553.383,2.234077411,-0.3047968174,-32.10056767,3.928192251,0.3599261054,,73.95961611,1.111695814e-06,6.747033033e-06,5.352956215e-07
553.483,2.234077487,-0.3047971585,-32.10056735,3.928192362,0.3599267812,,73.95961616,1.107926223e-06,6.765191891e-06,5.368292376e-07
553.583,2.234077511,-0.3047975972,-32.10056752,3.928192472,0.3599274584,,73.95961622,1.108490707e-06,6.77655303e-06,5.385002375e-07
553.683,2.234077693,-0.3047979726,-32.10056833,3.928192583,0.3599281363,,73.95961627,1.111484024e-06,6.766796603e-06,5.368537215e-07
553.783,2.234077719,-0.3047984178,-32.10056785,3.928192695,0.359928815,,73.95961632,1.115823241e-06,6.788698304e-06,5.386822987e-07
553.883,2.234077707,-0.3047986958,-32.10056764,3.928192806,0.3599294938,,73.95961638,1.115690925e-06,6.808578834e-06,5.407030388e-07
553.983,2.234077838,-0.3047989441,-32.10056778,3.928192917,0.3599301728,,73.95961643,1.117528351e-06,6.79374252e-06,5.39835806e-07
554.083,2.234077814,-0.3047995176,-32.10056759,3.928193028,0.3599308526,,73.95961649,1.116942189e-06,6.790666947e-06,5.383468896e-07
554.183,2.234077934,-0.3047998338,-32.10056745,3.92819314,0.3599315323,,73.95961654,1.10945057e-06,6.796937688e-06,5.393138232e-07
554.283,2.234078005,-0.3048002762,-32.10056761,3.928193251,0.3599322121,,73.95961659,1.108685746e-06,6.784602517e-06,5.381366989e-07
554.383,2.23407801,-0.3048006333,-32.10056728,3.928193362,0.3599328918,,73.95961665,1.116166416e-06,6.796853653e-06,5.402082335e-07
554.483,2.23407817,-0.3048009395,-32.10056806,3.928193474,0.3599335714,,73.9596167,1.120039933e-06,6.797117934e-06,5.399386313e-07
554.583,2.234078142,-0.3048014802,-32.10056708,3.928193585,0.3599342513,,73.95961676,1.116407041e-06,6.785666158e-06,5.386398498e-07
554.683,2.234078274,-0.3048017628,-32.10056796,3.928193696,0.3599349306,,73.95961681,1.113097684e-06,6.801633912e-06,5.394439654e-07
554.783,2.234078316,-0.3048020541,-32.10056758,3.928193808,0.3599356097,,73.95961686,1.117471779e-06,6.800871936e-06,5.398153516e-07
554.883,2.234078329,-0.3048025301,-32.10056767,3.928193919,0.3599362895,,73.95961692,1.117697297e-06,6.790034798e-06,5.394283729e-07
554.983,2.234078496,-0.3048028328,-32.10056779,3.928194031,0.3599369689,,73.95961697,1.11715467e-06,6.790633311e-06,5.392220508e-07
555.083,2.23407846,-0.3048033159,-32.10056747,3.928194142,0.3599376485,,73.95961702,1.111264447e-06,6.786884135e-06,5.381559635e-07
555.183,2.234078572,-0.3048037225,-32.10056764,3.928194253,0.359938328,,73.95961708,1.111889543e-06,6.785142413e-06,5.393038427e-07
555.283,2.234078609,-0.3048040214,-32.10056728,3.928194365,0.3599390069,,73.95961713,1.116084408e-06,6.792353055e-06,5.393272008e-07
555.383,2.234078617,-0.3048043611,-32.1005673,3.928194476,0.3599396859,,73.95961718,1.113579881e-06,6.793258101e-06,5.388577416e-07
555.483,2.234078742,-0.3048047776,-32.10056728,3.928194587,0.3599403653,,73.95961724,1.11082025e-06,6.798414153e-06,5.391432801e-07
555.583,2.234078881,-0.3048051012,-32.1005682,3.928194698,0.3599410443,,73.95961729,1.118530156e-06,6.797956395e-06,5.396754977e-07
555.683,2.234078807,-0.3048055409,-32.10056701,3.92819481,0.3599417233,,73.95961735,1.112353615e-06,6.781057269e-06,5.378170644e-07
555.783,2.234078989,-0.3048059395,-32.10056785,3.928194921,0.3599424028,,73.9596174,1.1125373e-06,6.778444187e-06,5.380058427e-07
555.883,2.234078959,-0.304806356,-32.10056725,3.928195032,0.3599430815,,73.95961745,1.113054461e-06,6.786451089e-06,5.382006849e-07
555.983,2.234079059,-0.304806692,-32.1005675,3.928195143,0.3599437602,,73.95961751,1.10893858e-06,6.782413958e-06,5.392696751e-07
556.083,2.234079175,-0.3048071232,-32.10056807,3.928195255,0.3599444389,,73.95961756,1.114005692e-06,6.790642056e-06,5.395312191e-07
556.183,2.234079143,-0.304807419,-32.1005673,3.928195366,0.3599451174,,73.95961761,1.115345174e-06,6.793386888e-06,5.390099487e-07
556.283,2.234079261,-0.3048078175,-32.10056776,3.928195477,0.3599457959,,73.95961767,1.113118877e-06,6.780711983e-06,5.377515593e-07
556.383,2.234079303,-0.3048082803,-32.10056778,3.928195588,0.3599464745,,73.95961772,1.114291531e-06,6.775297301e-06,5.372762348e-07
556.483,2.234079347,-0.304808623,-32.10056728,3.928195699,0.3599471529,,73.95961778,1.112664935e-06,6.782461683e-06,5.392688671e-07
556.583,2.234079478,-0.3048089556,-32.10056776,3.92819581,0.3599478313,,73.95961783,1.116162291e-06,6.784352323e-06,5.384419456e-07
556.683,2.234079461,-0.3048094029,-32.10056718,3.928195922,0.3599485097,,73.95961788,1.110420249e-06,6.768288581e-06,5.380384164e-07
556.842,2.234079539,-0.3048096173,-32.10056758,3.928195996,0.3599489617,,73.95961792,1.110859101e-06,6.793650097e-06,5.391912888e-07
556.875,2.234079797,-0.3048115249,-32.10056819,3.928196144,0.3599498966,,73.95961799,1.184130161e-06,7.015325649e-06,5.541127309e-07
556.975,2.234079671,-0.3048106236,-32.10056708,3.928196258,0.359950568,,73.95961805,1.110596804e-06,6.572693907e-06,5.215357607e-07
557.075,2.234079784,-0.3048108349,-32.10056782,3.928196368,0.3599512256,,73.9596181,1.088060291e-06,6.59035838e-06,5.227875139e-07
557.175,2.234079789,-0.3048111803,-32.10056725,3.928196477,0.3599518867,,73.95961815,1.085841791e-06,6.634588424e-06,5.262166013e-07
557.275,2.234079867,-0.3048115891,-32.10056752,3.928196586,0.3599525525,,73.9596182,1.091741675e-06,6.668208381e-06,5.292584471e-07
557.375,2.23407996,-0.3048119974,-32.1005675,3.928196695,0.3599532216,,73.95961826,1.094807221e-06,6.695110227e-06,5.310647677e-07
557.475,2.234080017,-0.3048124028,-32.10056781,3.928196805,0.3599538929,,73.95961831,1.099541038e-06,6.720247092e-06,5.331531085e-07
557.575,2.234080061,-0.3048127753,-32.10056766,3.928196915,0.3599545658,,73.95961836,1.105321267e-06,6.740347885e-06,5.343641796e-07
557.675,2.23408011,-0.3048131512,-32.10056769,3.928197025,0.3599552402,,73.95961842,1.104925224e-06,6.754490201e-06,5.366953308e-07
557.775,2.234080214,-0.3048134821,-32.10056777,3.928197135,0.3599559155,,73.95961847,1.105817527e-06,6.757993374e-06,5.362827431e-07
557.875,2.234080238,-0.3048138997,-32.10056739,3.928197246,0.3599565912,,73.95961852,1.109542271e-06,6.759292647e-06,5.373711814e-07
557.975,2.23408033,-0.30481424,-32.1005677,3.928197356,0.3599572675,,73.95961858,1.10997296e-06,6.761656527e-06,5.36550135e-07
558.075,2.23408028,-0.3048146387,-32.10056731,3.928197467,0.3599579442,,73.95961863,1.107920396e-06,6.754111601e-06,5.358293031e-07
558.175,2.234080458,-0.3048150856,-32.10056758,3.928197578,0.3599586207,,73.95961868,1.106440375e-06,6.762607571e-06,5.373658806e-07
558.275,2.234080486,-0.3048153559,-32.10056719,3.928197689,0.3599592971,,73.95961874,1.11427036e-06,6.777379288e-06,5.377049039e-07
558.375,2.234080491,-0.3048157835,-32.10056731,3.9281978,0.3599599738,,73.95961879,1.11372954e-06,6.777315163e-06,5.382461679e-07
558.475,2.23408064,-0.3048161156,-32.10056753,3.928197911,0.3599606505,,73.95961884,1.10724234e-06,6.774785868e-06,5.372447589e-07
558.575,2.234080685,-0.3048164802,-32.10056747,3.928198022,0.3599613273,,73.9596189,1.109838345e-06,6.757935859e-06,5.365012169e-07
558.675,2.234080744,-0.3048169211,-32.10056778,3.928198133,0.359962004,,73.95961895,1.108222791e-06,6.760899726e-06,5.362181744e-07
558.775,2.234080892,-0.3048172551,-32.10056784,3.928198244,0.3599626807,,73.959619,1.105166811e-06,6.7632829e-06,5.370059976e-07
558.875,2.2340809,-0.3048176904,-32.10056756,3.928198355,0.3599633574,,73.95961906,1.109344079e-06,6.765886127e-06,5.366267771e-07
558.975,2.234080961,-0.3048180277,-32.10056775,3.928198465,0.3599640342,,73.95961911,1.113003435e-06,6.770622691e-06,5.373688059e-07
559.075,2.234080977,-0.3048185004,-32.10056764,3.928198576,0.3599647108,,73.95961916,1.111516134e-06,6.755409992e-06,5.369063672e-07
559.175,2.234081045,-0.3048188378,-32.10056735,3.928198687,0.3599653871,,73.95961922,1.110487446e-06,6.757616072e-06,5.360517028e-07
559.275,2.234081088,-0.3048191816,-32.10056715,3.928198798,0.3599660633,,73.95961927,1.110877463e-06,6.761811375e-06,5.365670419e-07
559.375,2.234081148,-0.3048196201,-32.10056744,3.928198909,0.3599667396,,73.95961932,1.109101881e-06,6.760674796e-06,5.368803562e-07
559.475,2.234081226,-0.3048199291,-32.10056706,3.928199019,0.3599674159,,73.95961938,1.106700562e-06,6.756343397e-06,5.361407333e-07
559.575,2.234081278,-0.3048203408,-32.10056754,3.92819913,0.3599680922,,73.95961943,1.1079357e-06,6.74570541e-06,5.352324036e-07
559.675,2.23408136,-0.3048207498,-32.10056716,3.928199241,0.3599687679,,73.95961949,1.10625455e-06,6.747040166e-06,5.355432433e-07
559.775,2.23408147,-0.3048210532,-32.10056749,3.928199352,0.3599694433,,73.95961954,1.11213554e-06,6.763759206e-06,5.367503789e-07
559.875,2.234081447,-0.3048214812,-32.10056711,3.928199463,0.3599701188,,73.95961959,1.112977456e-06,6.761489987e-06,5.374238605e-07
559.975,2.234081587,-0.3048218149,-32.1005676,3.928199574,0.3599707944,,73.95961965,1.112715633e-06,6.758783476e-06,5.363339651e-07
560.075,2.234081577,-0.3048222415,-32.10056735,3.928199684,0.3599714702,,73.9596197,1.111267579e-06,6.755384702e-06,5.368885057e-07
560.175,2.234081694,-0.304822567,-32.10056781,3.928199795,0.3599721461,,73.95961975,1.10424124e-06,6.747880631e-06,5.356809106e-07
560.275,2.234081777,-0.3048229869,-32.10056734,3.928199906,0.3599728219,,73.95961981,1.102069337e-06,6.749702978e-06,5.356139081e-07
560.375,2.234081787,-0.3048234332,-32.10056736,3.928200017,0.3599734978,,73.95961986,1.107662405e-06,6.753143118e-06,5.354834033e-07
560.475,2.234081825,-0.3048236863,-32.10056666,3.928200127,0.3599741733,,73.95961991,1.111022678e-06,6.763962516e-06,5.369083663e-07
560.575,2.234081911,-0.3048241334,-32.10056721,3.928200238,0.3599748488,,73.95961997,1.109315782e-06,6.759120715e-06,5.373046928e-07
560.675,2.234081953,-0.3048244529,-32.10056691,3.928200349,0.3599755243,,73.95962002,1.114266771e-06,6.75570581e-06,5.362853292e-07
560.775,2.234082012,-0.3048248813,-32.1005676,3.928200459,0.3599761995,,73.95962007,1.107498236e-06,6.750179231e-06,5.354102425e-07
560.875,2.234082074,-0.304825221,-32.10056688,3.92820057,0.3599768746,,73.95962013,1.101049386e-06,6.746180664e-06,5.351329477e-07
560.975,2.234082263,-0.3048256507,-32.10056799,3.928200681,0.3599775498,,73.95962018,1.104968476e-06,6.737825051e-06,5.345852448e-07
561.075,2.234082201,-0.3048260954,-32.10056724,3.928200791,0.3599782248,,73.95962023,1.107421595e-06,6.743400756e-06,5.354654394e-07
561.175,2.234082325,-0.3048264707,-32.1005677,3.928200901,0.3599789004,,73.95962029,1.107780801e-06,6.751350909e-06,5.365456182e-07
561.275,2.234082298,-0.3048268047,-32.1005667,3.928201011,0.3599795758,,73.95962034,1.106276283e-06,6.756911603e-06,5.3567781e-07
561.375,2.234082352,-0.3048271489,-32.1005669,3.928201122,0.359980251,,73.95962039,1.1069761e-06,6.752189292e-06,5.356207264e-07
561.475,2.234082478,-0.3048274989,-32.10056722,3.928201232,0.3599809258,,73.95962045,1.106683291e-06,6.75032485e-06,5.355265104e-07
561.575,2.23408247,-0.3048279211,-32.10056697,3.928201343,0.3599816006,,73.9596205,1.109531907e-06,6.743792659e-06,5.356984439e-07
561.675,2.234082557,-0.3048282357,-32.10056693,3.928201453,0.3599822753,,73.95962055,1.105336739e-06,6.733446682e-06,5.346116059e-07
561.775,2.234082596,-0.3048286487,-32.10056654,3.928201563,0.3599829494,,73.9596206,1.111353414e-06,6.732292053e-06,5.343730716e-07
561.875,2.23408264,-0.3048290929,-32.10056652,3.928201674,0.3599836241,,73.95962066,1.104977488e-06,6.730915264e-06,5.337084557e-07
561.975,2.234082794,-0.3048294597,-32.10056724,3.928201784,0.3599842984,,73.95962071,1.103969868e-06,6.729276891e-06,5.337811005e-07
562.075,2.234082885,-0.3048297586,-32.10056731,3.928201895,0.3599849726,,73.95962076,1.104322361e-06,6.743519599e-06,5.353688498e-07
562.175,2.23408293,-0.3048302148,-32.10056712,3.928202005,0.3599856471,,73.95962082,1.107653037e-06,6.748236276e-06,5.348870562e-07
562.275,2.234082995,-0.3048304762,-32.10056773,3.928202115,0.3599863211,,73.95962087,1.107396166e-06,6.747869678e-06,5.356881207e-07
562.375,2.234083018,-0.3048308846,-32.10056668,3.928202226,0.3599869951,,73.95962092,1.105004417e-06,6.740997035e-06,5.348332591e-07
562.475,2.234083101,-0.3048312579,-32.10056709,3.928202336,0.3599876691,,73.95962098,1.109274267e-06,6.744173352e-06,5.350764948e-07
562.575,2.234083092,-0.3048316914,-32.10056671,3.928202446,0.3599883433,,73.95962103,1.107145243e-06,6.738915884e-06,5.352687139e-07
562.675,2.234083187,-0.3048320626,-32.10056708,3.928202557,0.3599890172,,73.95962108,1.102038646e-06,6.740021011e-06,5.351719994e-07
562.775,2.234083241,-0.3048323961,-32.10056678,3.928202667,0.3599896909,,73.95962114,1.11126339e-06,6.738660777e-06,5.347303513e-07
562.875,2.234083303,-0.3048328671,-32.10056691,3.928202778,0.3599903647,,73.95962119,1.107764266e-06,6.742827399e-06,5.346495157e-07
562.975,2.234083419,-0.3048331073,-32.10056726,3.928202889,0.3599910384,,73.95962124,1.106921603e-06,6.736710457e-06,5.349387246e-07
563.075,2.234083412,-0.3048335399,-32.10056698,3.928202999,0.3599917119,,73.9596213,1.111210336e-06,6.731325889e-06,5.339651542e-07
563.175,2.234083546,-0.304833979,-32.10056757,3.92820311,0.3599923859,,73.95962135,1.102568667e-06,6.723753512e-06,5.333065656e-07
563.275,2.234083573,-0.3048343917,-32.10056678,3.92820322,0.3599930595,,73.9596214,1.102497726e-06,6.720143427e-06,5.329027843e-07
563.375,2.234083648,-0.3048347064,-32.10056719,3.92820333,0.359993733,,73.95962146,1.101135271e-06,6.72998896e-06,5.338365104e-07
563.475,2.234083788,-0.3048350581,-32.10056748,3.92820344,0.3599944066,,73.95962151,1.101283446e-06,6.726544331e-06,5.34012923e-07
563.575,2.23408376,-0.3048355374,-32.10056717,3.928203551,0.3599950797,,73.95962156,1.102212103e-06,6.734882631e-06,5.337087318e-07
563.675,2.234083851,-0.3048358108,-32.10056744,3.928203661,0.359995753,,73.95962162,1.105491335e-06,6.736481582e-06,5.342991977e-07
563.775,2.234083902,-0.3048362405,-32.10056712,3.928203771,0.3599964259,,73.95962167,1.102902498e-06,6.728472705e-06,5.34007253e-07
563.875,2.234083977,-0.3048365883,-32.10056748,3.928203881,0.359997099,,73.95962172,1.105694428e-06,6.725482441e-06,5.336005858e-07
563.975,2.234083994,-0.3048370043,-32.10056679,3.928203991,0.3599977718,,73.95962178,1.103326846e-06,6.717263702e-06,5.326587568e-07
564.075,2.234083981,-0.3048373788,-32.10056635,3.928204102,0.3599984444,,73.95962183,1.10126323e-06,6.722507758e-06,5.330564882e-07
564.175,2.234084195,-0.3048376698,-32.10056745,3.928204212,0.3599991171,,73.95962188,1.102328641e-06,6.723343024e-06,5.338080071e-07
564.275,2.234084213,-0.3048381085,-32.10056673,3.928204322,0.3599997899,,73.95962193,1.103732709e-06,6.722973364e-06,5.335102214e-07
564.375,2.234084254,-0.3048384161,-32.10056651,3.928204432,0.3600004625,,73.95962199,1.102701906e-06,6.736350535e-06,5.344849921e-07
564.475,2.234084282,-0.3048388569,-32.1005665,3.928204542,0.3600011352,,73.95962204,1.104738594e-06,6.727130141e-06,5.343291481e-07
564.575,2.234084398,-0.3048392066,-32.10056722,3.928204653,0.3600018077,,73.95962209,1.109600092e-06,6.721390795e-06,5.334807831e-07
564.675,2.2340844,-0.3048396346,-32.10056657,3.928204763,0.3600024801,,73.95962215,1.102122744e-06,6.714761588e-06,5.324706125e-07
564.775,2.234084544,-0.3048400271,-32.10056748,3.928204873,0.3600031526,,73.9596222,1.099094408e-06,6.712942893e-06,5.324441313e-07
564.875,2.23408466,-0.3048403126,-32.10056743,3.928204983,0.3600038251,,73.95962225,1.096247987e-06,6.720925494e-06,5.337214876e-07
564.975,2.234084637,-0.3048407494,-32.10056657,3.928205093,0.3600044977,,73.95962231,1.104034323e-06,6.717628106e-06,5.331491048e-07
565.075,2.234084709,-0.304841081,-32.10056733,3.928205203,0.3600051697,,73.95962236,1.10462365e-06,6.728983733e-06,5.337070534e-07
565.175,2.234084762,-0.3048415172,-32.10056733,3.928205314,0.3600058415,,73.95962241,1.103214263e-06,6.717577647e-06,5.330311157e-07
565.275,2.234084825,-0.3048418581,-32.10056735,3.928205424,0.3600065137,,73.95962247,1.103991504e-06,6.713354797e-06,5.327229497e-07
565.375,2.234084881,-0.3048423008,-32.10056686,3.928205534,0.3600071858,,73.95962252,1.098860984e-06,6.706685211e-06,5.328729578e-07
565.475,2.234084987,-0.3048425765,-32.10056719,3.928205644,0.3600078575,,73.95962257,1.098014434e-06,6.705733394e-06,5.323676051e-07
565.575,2.234085021,-0.3048430093,-32.10056673,3.928205754,0.3600085295,,73.95962263,1.098169625e-06,6.702483147e-06,5.32034797e-07
565.683,2.234085092,-0.3048437348,-32.10056725,3.928205873,0.3600092589,,73.95962268,1.102987742e-06,6.768890347e-06,5.346461727e-07
565.783,2.234085134,-0.3048438255,-32.10056691,3.928205984,0.3600099319,,73.95962274,1.104872841e-06,6.713216419e-06,5.321703225e-07
565.883,2.234085196,-0.3048441099,-32.10056682,3.928206094,0.3600106026,,73.95962279,1.106445664e-06,6.714665142e-06,5.32595776e-07
565.983,2.234085233,-0.3048444743,-32.1005669,3.928206204,0.3600112736,,73.95962284,1.101097418e-06,6.715446885e-06,5.327443597e-07
566.083,2.234085254,-0.3048448393,-32.10056667,3.928206313,0.3600119447,,73.9596229,1.100019976e-06,6.71207761e-06,5.325562966e-07
566.183,2.234085335,-0.3048452846,-32.10056625,3.928206423,0.3600126158,,73.95962295,1.096144682e-06,6.708548088e-06,5.319429364e-07
566.283,2.234085457,-0.3048456567,-32.10056703,3.928206533,0.3600132869,,73.959623,1.103336874e-06,6.701422624e-06,5.318122364e-07
566.383,2.23408552,-0.3048460435,-32.1005667,3.928206643,0.3600139578,,73.95962306,1.104184732e-06,6.70554781e-06,5.318037002e-07
566.483,2.23408558,-0.3048464578,-32.10056693,3.928206753,0.3600146289,,73.95962311,1.099832152e-06,6.716874985e-06,5.333949118e-07
566.583,2.234085602,-0.3048468085,-32.10056671,3.928206863,0.3600152999,,73.95962316,1.104752433e-06,6.712552876e-06,5.322403097e-07
566.683,2.234085626,-0.3048471796,-32.10056657,3.928206973,0.3600159709,,73.95962321,1.095018203e-06,6.710785439e-06,5.320370673e-07
566.783,2.234085733,-0.3048475337,-32.10056664,3.928207083,0.3600166416,,73.95962327,1.098589882e-06,6.70183416e-06,5.317533607e-07
566.883,2.234085756,-0.30484782,-32.10056582,3.928207193,0.3600173125,,73.95962332,1.100446059e-06,6.705950856e-06,5.324822977e-07
566.983,2.234085871,-0.3048482105,-32.10056634,3.928207303,0.3600179835,,73.95962337,1.092243985e-06,6.702681551e-06,5.320857426e-07
567.083,2.234085909,-0.3048486862,-32.10056644,3.928207412,0.360018654,,73.95962343,1.102296803e-06,6.704691864e-06,5.315382096e-07
567.183,2.23408601,-0.3048490938,-32.10056714,3.928207523,0.3600193248,,73.95962348,1.10541839e-06,6.708804379e-06,5.318336504e-07
567.283,2.234086047,-0.3048493766,-32.10056668,3.928207632,0.3600199954,,73.95962353,1.105078663e-06,6.713214171e-06,5.326345263e-07
567.383,2.234086067,-0.3048497509,-32.10056663,3.928207742,0.3600206659,,73.95962359,1.101067634e-06,6.708631118e-06,5.32197433e-07
567.483,2.234086188,-0.304850207,-32.10056712,3.928207852,0.3600213364,,73.95962364,1.097246794e-06,6.700311884e-06,5.326577787e-07
567.583,2.234086193,-0.3048504575,-32.10056625,3.928207925,0.3600217834,,73.95962367,1.09956023e-06,6.701924467e-06,5.31364481e-07
567.683,2.234086329,-0.304850981,-32.10056652,3.928208074,0.3600226944,,73.95962375,1.108165005e-06,6.675901989e-06,5.304515432e-07
567.783,2.234086373,-0.3048513412,-32.10056676,3.928208184,0.3600233613,,73.9596238,1.100568724e-06,6.660706282e-06,5.292458173e-07
567.883,2.234086508,-0.3048516634,-32.1005671,3.928208294,0.3600240278,,73.95962385,1.099450474e-06,6.671291478e-06,5.293215806e-07
567.983,2.234086437,-0.3048520536,-32.1005662,3.928208404,0.3600246949,,73.9596239,1.100981704e-06,6.677451322e-06,5.303914146e-07
568.083,2.234086518,-0.3048523548,-32.10056662,3.928208513,0.3600253628,,73.95962396,1.087976481e-06,6.678335529e-06,5.302641541e-07
568.183,2.234086553,-0.3048527558,-32.10056633,3.928208621,0.3600260313,,73.95962401,1.094125074e-06,6.684937632e-06,5.303259417e-07
568.283,2.234086707,-0.3048531618,-32.10056728,3.92820873,0.3600267002,,73.95962406,1.09441843e-06,6.683074125e-06,5.300563083e-07
568.383,2.234086668,-0.3048536078,-32.10056622,3.92820884,0.3600273692,,73.95962412,1.101493392e-06,6.680191521e-06,5.309179481e-07
568.483,2.234086831,-0.3048539153,-32.1005669,3.92820895,0.3600280387,,73.95962417,1.099141206e-06,6.681625077e-06,5.305718296e-07
568.583,2.234086872,-0.3048543457,-32.10056681,3.92820906,0.3600287079,,73.95962422,1.098374404e-06,6.689976529e-06,5.310890541e-07
568.683,2.234086921,-0.3048546368,-32.10056665,3.928209169,0.360029377,,73.95962428,1.095118972e-06,6.695727585e-06,5.313063646e-07
568.783,2.234086953,-0.3048550074,-32.10056624,3.928209279,0.3600300463,,73.95962433,1.099098708e-06,6.696145005e-06,5.315109689e-07
568.883,2.23408701,-0.3048554313,-32.10056612,3.928209388,0.3600307159,,73.95962438,1.096807545e-06,6.698967029e-06,5.320081772e-07
568.983,2.234087121,-0.3048557849,-32.10056652,3.928209498,0.3600313855,,73.95962443,1.097551028e-06,6.688300638e-06,5.307911648e-07
569.083,2.234087149,-0.3048562469,-32.10056637,3.928209608,0.3600320548,,73.95962449,1.094943679e-06,6.678427273e-06,5.309368792e-07
569.183,2.234087205,-0.3048564969,-32.10056614,3.928209718,0.3600327239,,73.95962454,1.102160095e-06,6.695839779e-06,5.313608361e-07
569.283,2.234087222,-0.304856894,-32.10056602,3.928209828,0.3600333931,,73.95962459,1.105400026e-06,6.699865194e-06,5.313151019e-07
569.383,2.234087345,-0.3048572798,-32.10056688,3.928209937,0.3600340619,,73.95962465,1.101329736e-06,6.690058793e-06,5.308072713e-07
569.483,2.234087455,-0.3048576765,-32.10056735,3.928210047,0.3600347307,,73.9596247,1.095630269e-06,6.684609522e-06,5.30093045e-07
569.583,2.234087451,-0.3048580347,-32.10056659,3.928210156,0.3600353998,,73.95962475,1.092437874e-06,6.682254617e-06,5.302793083e-07
569.683,2.234087478,-0.3048584312,-32.10056655,3.928210266,0.3600360687,,73.9596248,1.095432596e-06,6.67631618e-06,5.295216213e-07
569.783,2.234087613,-0.3048587334,-32.10056668,3.928210375,0.3600367376,,73.95962486,1.089371047e-06,6.680848217e-06,5.306134118e-07
569.883,2.234087619,-0.3048592227,-32.10056603,3.928210484,0.3600374063,,73.95962491,1.093640875e-06,6.681779155e-06,5.311986691e-07
569.983,2.234087716,-0.3048595501,-32.10056676,3.928210593,0.3600380749,,73.95962496,1.096928898e-06,6.687379271e-06,5.305319753e-07
570.083,2.234087806,-0.3048599231,-32.10056679,3.928210703,0.3600387434,,73.95962502,1.09665284e-06,6.679394914e-06,5.298218673e-07
570.183,2.234087816,-0.304860261,-32.10056648,3.928210813,0.3600394119,,73.95962507,1.098805784e-06,6.687349106e-06,5.303657275e-07
570.283,2.234087891,-0.3048607164,-32.10056655,3.928210922,0.3600400804,,73.95962512,1.096304969e-06,6.679081689e-06,5.295706485e-07
570.383,2.23408791,-0.3048610507,-32.10056605,3.928211032,0.3600407488,,73.95962517,1.090314107e-06,6.685867072e-06,5.310463533e-07
570.483,2.234088055,-0.304861416,-32.10056658,3.928211141,0.3600414172,,73.95962523,1.09300979e-06,6.676779726e-06,5.299048589e-07
570.583,2.234088034,-0.3048618252,-32.10056641,3.92821125,0.3600420855,,73.95962528,1.096088064e-06,6.675111695e-06,5.295140353e-07
570.683,2.234088188,-0.3048620982,-32.10056697,3.92821136,0.3600427534,,73.95962533,1.099336804e-06,6.692599006e-06,5.309354878e-07
570.783,2.234088164,-0.3048625549,-32.10056635,3.92821147,0.3600434214,,73.95962539,1.103533213e-06,6.684898698e-06,5.314134453e-07
570.883,2.234088286,-0.3048628399,-32.10056651,3.928211579,0.3600440891,,73.95962544,1.093514617e-06,6.676483422e-06,5.301101772e-07
570.983,2.234088254,-0.3048632589,-32.10056651,3.928211688,0.3600447568,,73.95962549,1.088368969e-06,6.675092871e-06,5.292196396e-07
571.083,2.234088383,-0.3048636357,-32.10056659,3.928211797,0.3600454249,,73.95962554,1.094184028e-06,6.672190272e-06,5.29582754e-07
571.183,2.234088436,-0.3048640682,-32.10056684,3.928211906,0.360046093,,73.9596256,1.09616395e-06,6.67584037e-06,5.294080525e-07
571.283,2.234088526,-0.3048644611,-32.10056647,3.928212016,0.3600467609,,73.95962565,1.098962767e-06,6.679144994e-06,5.29617064e-07
571.383,2.234088495,-0.3048647667,-32.10056615,3.928212125,0.3600474283,,73.9596257,1.098974774e-06,6.674453993e-06,5.294320767e-07
571.483,2.234088595,-0.3048650863,-32.10056622,3.928212235,0.3600480958,,73.95962576,1.101996597e-06,6.679563305e-06,5.300421491e-07
571.583,2.234088658,-0.3048655623,-32.10056626,3.928212345,0.3600487635,,73.95962581,1.102434952e-06,6.670664159e-06,5.303045837e-07
571.683,2.234088795,-0.3048658666,-32.10056664,3.928212454,0.3600494312,,73.95962586,1.086593964e-06,6.666490465e-06,5.293389251e-07
571.783,2.234088807,-0.304866303,-32.10056628,3.928212563,0.3600500986,,73.95962591,1.086969903e-06,6.670302728e-06,5.2941825e-07
571.883,2.234088877,-0.3048666925,-32.10056649,3.928212672,0.3600507661,,73.95962597,1.089836535e-06,6.666044018e-06,5.287477199e-07
571.983,2.234088956,-0.3048671163,-32.10056631,3.928212781,0.3600514333,,73.95962602,1.088024393e-06,6.673981408e-06,5.29121096e-07
572.083,2.234088976,-0.3048674065,-32.10056622,3.92821289,0.3600521004,,73.95962607,1.090691398e-06,6.668388336e-06,5.290801038e-07
572.183,2.234089076,-0.3048677399,-32.10056653,3.928212999,0.3600527674,,73.95962613,1.093698211e-06,6.670098776e-06,5.292117745e-07
572.283,2.234089092,-0.3048681509,-32.10056642,3.928213108,0.3600534344,,73.95962618,1.091875917e-06,6.666386985e-06,5.286576755e-07
572.383,2.23408921,-0.3048686147,-32.1005667,3.928213217,0.3600541015,,73.95962623,1.09518808e-06,6.655437855e-06,5.276724225e-07
572.483,2.23408928,-0.3048688846,-32.10056656,3.928213327,0.3600547681,,73.95962628,1.092000833e-06,6.664795609e-06,5.285053262e-07
572.583,2.234089294,-0.3048693367,-32.10056633,3.928213436,0.3600554348,,73.95962634,1.096963861e-06,6.660266059e-06,5.2846118e-07
572.683,2.234089371,-0.3048696548,-32.10056635,3.928213546,0.3600561017,,73.95962639,1.09260296e-06,6.681633101e-06,5.302682012e-07
572.783,2.234346697,-0.3049097233,-32.10055751,3.928213157,0.3600566769,,73.95962643,-6.194083077e-05,-3.992667081e-06,-6.364093916e-07
572.883,2.235313459,-0.3050515836,-32.1004987,3.928175586,0.3600512,,73.95962581,-0.0009464761977,-0.0001432975246,-1.613326518e-05
572.983,2.236098215,-0.3051357223,-32.10042878,3.928000935,0.360025441,,73.95962288,-0.002863811151,-0.0004113175828,-4.706879899e-05
573.083,2.236252525,-0.3051542376,-32.10065382,3.927597285,0.3599688571,,73.95961636,-0.00549838856,-0.0007572165157,-8.781791125e-05
573.183,2.236105663,-0.3050652451,-32.10047086,3.92691481,0.3598762136,,73.95960557,-0.008414861166,-0.001128616626,-0.0001320156264
573.283,2.235417078,-0.3049422195,-32.1002592,3.925940429,0.3597502356,,73.95959065,-0.01128130053,-0.001420816107,-0.0001697411263
573.383,2.234554171,-0.3048580461,-32.10021144,3.924686741,0.3595913104,,73.95957171,-0.01396194864,-0.001739242607,-0.0002085356261
573.483,2.233208196,-0.3048095095,-32.10087863,3.923181538,0.3594004035,,73.95954896,-0.01625889755,-0.00208970902,-0.0002478147662
573.583,2.232062027,-0.3045180472,-32.10039801,3.921463683,0.3591795685,,73.95952278,-0.01819069921,-0.002304152349,-0.0002745503928
573.683,2.230575699,-0.3044767839,-32.10090975,3.919570763,0.3589374018,,73.95949403,-0.01972330222,-0.002545263165,-0.0003012658619
573.783,2.229124339,-0.3042894178,-32.10107802,3.917543884,0.3586749472,,73.959463,-0.02084804661,-0.002712204772,-0.0003200532944
573.883,2.227480961,-0.3041075053,-32.10105468,3.915420494,0.3583977325,,73.95943033,-0.02162267765,-0.002814606885,-0.0003319667484
573.983,2.226115247,-0.303891345,-32.10104378,3.913235882,0.3581120186,,73.9593967,-0.02206881795,-0.002895472873,-0.0003404881868
574.083,2.224668873,-0.3035490407,-32.10107483,3.911019871,0.3578198475,,73.9593624,-0.02223612889,-0.002919431789,-0.0003431208162
574.183,2.223165037,-0.3034812092,-32.10135746,3.908798015,0.3575255761,,73.95932792,-0.0221580419,-0.002955400957,-0.0003454011287
574.283,2.22174525,-0.3032726631,-32.10143625,3.906593658,0.3572306534,,73.9592935,-0.0218732783,-0.002934560828,-0.0003421862092
574.383,2.220361485,-0.303081794,-32.10137544,3.904426167,0.3569395855,,73.95925957,-0.02141054377,-0.002877111788,-0.0003351990724
574.483,2.219083016,-0.3029209099,-32.10160956,3.902311624,0.3566549946,,73.95922644,-0.0208128173,-0.002813382027,-0.0003270308253
574.583,2.217848424,-0.3027578512,-32.1017255,3.900262078,0.3563777748,,73.95919423,-0.02010502513,-0.00272800996,-0.0003166146777
574.683,2.216586592,-0.3024073061,-32.10146954,3.898287102,0.3561091819,,73.95916308,-0.01931151144,-0.002616422536,-0.0003037244755
574.783,2.21555338,-0.302434494,-32.1018637,3.896394348,0.3558513502,,73.95913321,-0.01846407443,-0.002524393148,-0.0002920848953
574.883,2.21456414,-0.302190394,-32.10207463,3.894588187,0.3556049324,,73.95910468,-0.01758905014,-0.002368851238,-0.000275381603
574.983,2.213518054,-0.3021897258,-32.10202726,3.892871741,0.3553726491,,73.95907773,-0.01665812472,-0.002290016719,-0.0002643505836
575.083,2.212683138,-0.3018632318,-32.10238396,3.891248485,0.3551485432,,73.9590519,-0.015734825,-0.00216283033,-0.0002496191493
575.183,2.211741844,-0.3019609814,-32.10217659,3.889716521,0.3549392597,,73.9590277,-0.01481898334,-0.002042057079,-0.0002354321967
575.283,2.210936483,-0.3018277187,-32.10217407,3.888276377,0.3547410289,,73.95900484,-0.01390370406,-0.001932457383,-0.0002221249258
575.383,2.210184068,-0.3017554874,-32.1021122,3.886927021,0.3545539366,,73.95898332,-0.01301559984,-0.001802365452,-0.0002073782365
575.483,2.209559873,-0.3015255781,-32.10225744,3.885665577,0.3543786142,,73.95896317,-0.01216064452,-0.001655956383,-0.0001915496401
575.592,2.208874623,-0.3015688229,-32.10234906,3.884487399,0.3542180303,,73.9589446,-0.01132348178,-0.001581837146,-0.0001814211402
575.7,2.208277897,-0.3013227546,-32.10249662,3.88321841,0.354040535,,73.95892426,-0.01039282313,-0.001429896675,-0.0001647815807
575.8,2.207682683,-0.3013553838,-32.10242059,3.882214248,0.3539001102,,73.95890816,-0.009631313501,-0.001365794885,-0.000155834008
575.875,2.207345918,-0.3012419995,-32.10242591,3.881509563,0.3538016284,,73.95889687,-0.009112937827,-0.001236577371,-0.0001431160267
575.975,2.206805945,-0.3013458066,-32.10236416,3.880629234,0.3536827073,,73.95888309,-0.008428792394,-0.001172779985,-0.0001346023438
576.092,2.206360627,-0.3011614326,-32.10251703,3.879688749,0.3535487013,,73.95886783,-0.007653660112,-0.001102411756,-0.0001251101136
576.2,2.205911184,-0.301224196,-32.10223968,3.878891933,0.3534360554,,73.95885497,-0.007022805598,-0.0009638293153,-0.0001110887569
576.3,2.205638317,-0.3009479953,-32.10251926,3.878216489,0.353340459,,73.95884406,-0.006457788976,-0.000897126603,-0.0001029825697
576.375,2.205363282,-0.301036621,-32.10259403,3.877745614,0.353274095,,73.95883648,-0.006055054079,-0.0008695531549,-9.874774827e-05
576.475,2.205074047,-0.3009742018,-32.1026076,3.877163351,0.3531901432,,73.95882696,-0.005555845486,-0.0008020261628,-9.092080272e-05
576.575,2.204750322,-0.3010812642,-32.1023116,3.876627921,0.3531160856,,73.95881845,-0.005121428481,-0.0006869808246,-7.975399106e-05
576.675,2.204579312,-0.3008363879,-32.10261131,3.876136539,0.3530474436,,73.95881058,-0.004691608155,-0.0006308833933,-7.317712137e-05
576.783,2.204284643,-0.3009165014,-32.10264911,3.875649731,0.3529814897,,73.95880295,-0.00425321814,-0.0006144393983,-6.962421594e-05
576.883,2.204102075,-0.3008400601,-32.10267752,3.875242103,0.3529216644,,73.95879621,-0.00387581734,-0.0005729873511,-6.445365784e-05
576.983,2.20392348,-0.300809753,-32.10268977,3.874870274,0.3528667853,,73.95879003,-0.00353817556,-0.0005205216163,-5.863807898e-05
577.1,2.203706728,-0.3007178124,-32.10267155,3.874504177,0.3528141727,,73.95878406,-0.003187842625,-0.0004173062107,-4.883104537e-05
577.2,2.204575547,-0.3010247364,-32.10279577,3.874172612,0.3527701942,,73.95877894,-0.003018858625,-0.0003947986113,-4.621046099e-05
577.275,2.209096478,-0.3018923732,-32.1024511,3.873860379,0.3527179212,,73.95877327,-0.006241814854,-0.001179022983,-0.0001236010119
577.375,2.209724434,-0.30163046,-32.10235497,3.872921522,0.3525469952,,73.95875518,-0.01325786865,-0.002297479917,-0.0002464940626
577.483,2.207429903,-0.3009823501,-32.10213113,3.871118286,0.3522504773,,73.9587229,-0.02030556567,-0.003174765793,-0.000350820101
577.592,2.204455456,-0.3007526104,-32.10270477,3.868641331,0.3518749591,,73.95868102,-0.0254839246,-0.003762320206,-0.0004229474795
577.692,2.201559667,-0.3003615933,-32.10283528,3.865942037,0.3514821682,,73.95863667,-0.02850755418,-0.004105689683,-0.0004649733018
577.792,2.198903019,-0.3000309252,-32.10312467,3.863000406,0.3510633338,,73.95858908,-0.03028990722,-0.00428896228,-0.0004881541756
577.892,2.196424729,-0.2995571112,-32.10298198,3.859928534,0.3506300841,,73.95853972,-0.03106946594,-0.004334005012,-0.0004954528059
577.992,2.194089381,-0.2992371348,-32.10344413,3.856817176,0.3501963633,,73.95849013,-0.03105739965,-0.0043201774,-0.0004940899304
578.092,2.191714446,-0.2989986908,-32.10377294,3.853735062,0.3497689002,,73.95844121,-0.03044851931,-0.004218731584,-0.0004828805036
578.192,2.189668196,-0.2987575594,-32.10367397,3.850736446,0.3493495733,,73.95839337,-0.02936352165,-0.004124595971,-0.00046978281
578.292,2.18776246,-0.2984902929,-32.10380098,3.847864653,0.3489464891,,73.95834746,-0.0279095666,-0.003918691412,-0.0004461968268
578.392,2.185980936,-0.2983086297,-32.10355139,3.845149149,0.348566385,,73.95830415,-0.02622087156,-0.003659668924,-0.0004173409117
578.492,2.184483549,-0.2980678562,-32.10417629,3.842614468,0.3482117479,,73.95826375,-0.02430313452,-0.003406780615,-0.0003878025356
578.592,2.18293489,-0.2979269225,-32.10379544,3.840276105,0.3478848883,,73.95822651,-0.02226429244,-0.003101222516,-0.0003536197431
578.692,2.181817999,-0.2976628324,-32.10422059,3.838143596,0.3475860399,,73.95819251,-0.02020611093,-0.002846680847,-0.0003232997273
578.792,2.180742355,-0.2975001117,-32.10444889,3.836218699,0.3473148985,,73.95816172,-0.01811840906,-0.002547984622,-0.0002894589536
578.892,2.179859798,-0.2974517387,-32.1046261,3.834503966,0.3470747622,,73.9581344,-0.01600867179,-0.002245934058,-0.0002552765879
578.992,2.179015089,-0.2971837878,-32.10431473,3.832994201,0.3468632062,,73.95811035,-0.01403071255,-0.001942869178,-0.0002217295817
579.075,2.178435052,-0.2971933731,-32.1043945,3.831887216,0.3467081353,,73.95809272,-0.0123898374,-0.001755857463,-0.0001988411821
579.175,2.177799577,-0.2969241826,-32.10418041,3.830734724,0.3465448437,,73.95807423,-0.01052051737,-0.00148190774,-0.0001681224601
579.275,2.177350531,-0.297042626,-32.10450173,3.829764295,0.3464080048,,73.95805872,-0.008754959624,-0.001251444771,-0.0001412801999
579.375,2.177099058,-0.297018674,-32.1045119,3.828963554,0.3462959247,,73.95804598,-0.007152114392,-0.001018541811,-0.0001151113601
579.475,2.176843147,-0.2969495421,-32.104568,3.828317191,0.3462032697,,73.95803553,-0.005676141789,-0.0008160537256,-9.193824499e-05
579.575,2.17666208,-0.296922355,-32.10457859,3.827812843,0.3461307481,,73.95802736,-0.004317314375,-0.0006208904504,-6.993846468e-05
579.675,2.176563794,-0.2969088026,-32.10458594,3.827438742,0.346076917,,73.9580213,-0.003083159986,-0.0004442054858,-5.000159988e-05
579.775,2.176533228,-0.2969047433,-32.10458866,3.827182127,0.3460398737,,73.95801713,-0.001978556603,-0.0002866810804,-3.220847821e-05
579.875,2.17655905,-0.296908198,-32.10458759,3.827030071,0.3460177256,,73.95801465,-0.001002074472,-0.0001477072887,-1.650454781e-05
579.975,2.1766223,-0.2969359483,-32.10457803,3.826969171,0.3460102087,,73.95801376,-0.0001533340087,-2.507878042e-05,-2.71338986e-06
580.075,2.176740971,-0.2969351921,-32.10457695,3.826988768,0.3460122887,,73.95801402,0.0005872243281,7.453581108e-05,8.7542841e-06
580.175,2.176886994,-0.296953767,-32.10456795,3.827077126,0.346023962,,73.95801537,0.001214297153,0.0001640989306,1.886405288e-05
580.275,2.177057285,-0.2969773697,-32.10455655,3.827223378,0.3460439435,,73.95801766,0.001738048343,0.0002395014255,2.735424047e-05
580.375,2.177246837,-0.2970039014,-32.10454364,3.82741761,0.3460708371,,73.95802072,0.002167482588,0.0003013873447,3.432093493e-05
580.475,2.177451015,-0.2970325519,-32.1045301,3.827650784,0.3461033438,,73.95802442,0.002511115249,0.0003509393461,3.989878551e-05
580.575,2.177673074,-0.2970628385,-32.1045154,3.827914254,0.3461402839,,73.95802862,0.002766303558,0.000389304898,4.41618463e-05
580.675,2.177885051,-0.2970938306,-32.10450072,3.828200242,0.3461805954,,73.95803319,0.002959966989,0.0004177357714,4.734548296e-05
580.775,2.178105624,-0.2971252176,-32.10448603,3.828502945,0.3462233339,,73.95803803,0.003096141909,0.0004372914826,4.955164291e-05
580.875,2.178328042,-0.2971567284,-32.10447023,3.828816757,0.3462676596,,73.95804306,0.003178493774,0.0004489978364,5.087769997e-05
580.975,2.178548689,-0.2971878816,-32.10445539,3.829136547,0.346312835,,73.95804817,0.003212708379,0.0004538622895,5.143018226e-05
581.075,2.178668096,-0.2972223189,-32.10466379,3.829457784,0.3463582191,,73.95805332,0.003215271856,0.0004524718669,5.133879084e-05
581.175,2.178995554,-0.2972476552,-32.10442216,3.829778705,0.3464032606,,73.95805843,0.003171228601,0.0004467886224,5.06780668e-05
581.275,2.179086251,-0.2972802194,-32.10463592,3.830092003,0.3464474925,,73.95806344,0.003095680846,0.0004359987038,4.946122385e-05
581.375,2.179391044,-0.2973030793,-32.1043954,3.830398165,0.3464905168,,73.95806833,0.002993335603,0.0004225105738,4.789980116e-05
581.475,2.179556884,-0.2973288462,-32.10438718,3.830691511,0.3465320165,,73.95807303,0.002862253056,0.0004056664124,4.59311957e-05
581.575,2.179722003,-0.2973528783,-32.10437606,3.830971517,0.3465717258,,73.95807752,0.002725002853,0.0003866200819,4.37616646e-05
581.675,2.179879854,-0.2973755459,-32.1043651,3.831237388,0.3466094479,,73.95808179,0.002578775983,0.0003658389997,4.141235684e-05
581.775,2.180032098,-0.2973964303,-32.10435455,3.831487526,0.3466450288,,73.95808582,0.002412173215,0.0003437868485,3.885966612e-05
581.875,2.180162521,-0.297415682,-32.10434551,3.831721348,0.3466783646,,73.95808958,0.002251014077,0.000320930009,3.627326578e-05
581.975,2.180285997,-0.2974334244,-32.10433611,3.831939062,0.3467093927,,73.95809309,0.002089662627,0.0002976455657,3.365282716e-05
582.075,2.180400024,-0.297449567,-32.10432875,3.832140604,0.3467380835,,73.95809634,0.001927656982,0.0002742285316,3.102046449e-05
582.175,2.180503511,-0.2974640737,-32.10432201,3.832325957,0.3467644385,,73.95809932,0.001766169063,0.0002509738698,2.840094823e-05
582.275,2.180596543,-0.2974773279,-32.10431492,3.832495245,0.3467884831,,73.95810204,0.001606786597,0.0002280953799,2.582089216e-05
582.375,2.180714687,-0.2974896993,-32.10431344,3.832651644,0.3468102642,,73.95810452,0.001471473365,0.0002060127925,2.342624019e-05
582.475,2.180766075,-0.2974993336,-32.10430346,3.832790644,0.3468298623,,73.95810674,0.001299008165,0.0001843346781,2.087045875e-05
582.575,2.180820639,-0.2975082664,-32.10429994,3.83291351,0.3468473433,,73.95810872,0.001148323463,0.0001637274113,1.85092144e-05
582.675,2.180837386,-0.2975156352,-32.104292,3.833024905,0.346862796,,73.95811048,0.001073739237,0.0001441324538,1.662019097e-05
582.775,2.180950875,-0.2975229162,-32.10429241,3.833123076,0.3468763719,,73.95811203,0.0008876999783,0.0001256929834,1.424332949e-05
582.875,2.180983022,-0.2975282825,-32.10428828,3.833205302,0.3468881316,,73.95811336,0.000746744322,0.0001082569214,1.21754341e-05
582.975,2.180996172,-0.2975328136,-32.10428809,3.833274025,0.3468982042,,73.95811449,0.0006223109507,9.206430166e-05,1.028799289e-05
583.075,2.181014481,-0.2975365805,-32.10428695,3.833331416,0.3469067135,,73.95811544,0.0005194102951,7.709290098e-05,8.605964227e-06
583.175,2.181032751,-0.2975395259,-32.10428525,3.833379101,0.3469137827,,73.95811623,0.000428225388,6.333408232e-05,7.079547093e-06
583.275,2.181048088,-0.2975417876,-32.10428332,3.833418059,0.3469195305,,73.95811687,0.0003452430774,5.076120814e-05,5.684001259e-06
583.375,2.181059502,-0.2975432759,-32.10428204,3.833449048,0.346924075,,73.95811738,0.0002693552426,3.935438608e-05,4.416255839e-06
583.475,2.181066931,-0.297544224,-32.104282,3.833472762,0.3469275304,,73.95811777,0.0002002832898,2.908795885e-05,3.267953851e-06
583.575,2.181070691,-0.2975446396,-32.10428184,3.833489878,0.3469300091,,73.95811805,0.0001379456107,1.990357279e-05,2.238533423e-06
583.675,2.181071124,-0.2975446357,-32.1042814,3.833501066,0.346931618,,73.95811823,8.226998657e-05,1.177083259e-05,1.327639803e-06
583.775,2.181068807,-0.2975442362,-32.10428141,3.833506987,0.3469324595,,73.95811833,3.310555078e-05,4.632456888e-06,5.247859865e-07
583.875,2.181064058,-0.2975435902,-32.10428091,3.833508279,0.3469326304,,73.95811835,-9.816699113e-06,-1.579779762e-06,-1.745768928e-07
583.975,2.181057449,-0.2975425571,-32.10428198,3.833505556,0.3469322215,,73.9581183,-4.676931102e-05,-6.897484936e-06,-7.741723499e-07
584.075,2.181062631,-0.2975414908,-32.10428141,3.833499253,0.3469313179,,73.9581182,-8.567597232e-05,-1.143433113e-05,-1.322296486e-06
584.175,2.181040553,-0.2975400402,-32.10428324,3.833489083,0.3469299948,,73.95811804,-0.0001176885418,-1.520635024e-05,-1.77744883e-06
584.275,2.181025826,-0.2975384553,-32.10428428,3.833476313,0.3469283287,,73.95811785,-0.0001380900921,-1.826688234e-05,-2.117977808e-06
584.375,2.181013184,-0.2975369085,-32.10428532,3.833461812,0.3469263869,,73.95811763,-0.0001523183385,-2.068206707e-05,-2.376909392e-06
584.475,2.181001261,-0.2975351695,-32.10428591,3.833446083,0.3469242297,,73.95811738,-0.0001625618496,-2.253569546e-05,-2.572273324e-06
584.575,2.180989348,-0.2975334402,-32.10428652,3.833429475,0.3469219116,,73.95811711,-0.0001697265534,-2.386064101e-05,-2.710941964e-06
584.675,2.180977412,-0.2975317334,-32.10428744,3.833412276,0.346919481,,73.95811684,-0.0001742128397,-2.475594453e-05,-2.802921172e-06
584.775,2.18096557,-0.2975298859,-32.10428831,3.833394739,0.3469169818,,73.95811656,-0.0001763270771,-2.521670214e-05,-2.849050319e-06
584.875,2.180953743,-0.2975282046,-32.10428889,3.83337709,0.3469144518,,73.95811627,-0.0001763072064,-2.534281825e-05,-2.860172545e-06
584.975,2.180942352,-0.2975266186,-32.10429036,3.833359533,0.3469119238,,73.95811598,-0.0001743728824,-2.516132706e-05,-2.834677916e-06
585.075,2.180931172,-0.2975249229,-32.10429067,3.833342248,0.346909427,,73.9581157,-0.0001707751022,-2.470323476e-05,-2.782574e-06
585.175,2.180920461,-0.2975233917,-32.1042913,3.83332539,0.3469069861,,73.95811543,-0.000165748701,-2.403198985e-05,-2.704935826e-06
585.275,2.180918587,-0.29752185,-32.10429093,3.833308735,0.3469046194,,73.95811516,-0.0001697039837,-2.32113748e-05,-2.662156938e-06
585.375,2.180900119,-0.2975206039,-32.10429336,3.833291866,0.3469023431,,73.9581149,-0.0001658379156,-2.222500775e-05,-2.56671266e-06
585.475,2.180887826,-0.2975192429,-32.10429341,3.833275699,0.346900171,,73.95811465,-0.0001561955626,-2.111062454e-05,-2.430838578e-06
585.575,2.180878595,-0.2975179863,-32.10429382,3.833260593,0.3468981156,,73.95811441,-0.0001448558579,-1.98877072e-05,-2.278057389e-06
585.675,2.180870841,-0.2975169019,-32.10429412,3.833246637,0.3468961849,,73.95811419,-0.0001333256988,-1.862679189e-05,-2.121423166e-06
585.775,2.180863923,-0.2975157794,-32.10429516,3.833233824,0.3468943814,,73.95811399,-0.0001220718332,-1.731786086e-05,-1.962540981e-06
585.875,2.180857755,-0.2975148776,-32.10429574,3.833222116,0.3468927101,,73.9581138,-0.000111261214,-1.599414383e-05,-1.804872417e-06
585.975,2.18085219,-0.2975139428,-32.1042961,3.833211468,0.3468911708,,73.95811362,-0.0001008963256,-1.467108202e-05,-1.649421831e-06
586.075,2.180847092,-0.2975132536,-32.10429655,3.833201837,0.3468897644,,73.95811347,-9.096265999e-05,-1.336054572e-05,-1.497542655e-06
586.175,2.180842585,-0.2975125151,-32.10429638,3.83319318,0.3468884865,,73.95811332,-8.146084635e-05,-1.208470847e-05,-1.350243356e-06
586.275,2.180838658,-0.297511887,-32.10429728,3.833185453,0.3468873351,,73.95811319,-7.238899112e-05,-1.08460354e-05,-1.209626793e-06
586.383,2.180834894,-0.2975112576,-32.10429768,3.833178082,0.346886225,,73.95811307,-6.306860757e-05,-9.548864768e-06,-1.061044249e-06
586.483,2.180836338,-0.2975108477,-32.10429729,3.833171425,0.3468853197,,73.95811297,-6.723274873e-05,-8.454599526e-06,-9.984773391e-07
586.583,2.180827407,-0.2975104379,-32.10429797,3.833164965,0.3468845229,,73.95811287,-6.055824941e-05,-7.395865537e-06,-8.821968745e-07
586.683,2.18082314,-0.2975101501,-32.10429818,3.833159335,0.3468838305,,73.95811279,-5.111629786e-05,-6.385489216e-06,-7.555037059e-07
586.783,2.180821029,-0.2975098348,-32.10429822,3.833154661,0.3468832363,,73.95811272,-4.167104146e-05,-5.433085365e-06,-6.334653864e-07
586.883,2.180819802,-0.2975096881,-32.10429838,3.833150895,0.3468827337,,73.95811266,-3.311574643e-05,-4.553164711e-06,-5.218920915e-07
586.983,2.180819055,-0.2975094872,-32.10429859,3.833147935,0.3468823161,,73.95811261,-2.56412563e-05,-3.745467513e-06,-4.205230497e-07
587.083,2.180818594,-0.2975093753,-32.10429776,3.833145675,0.346881976,,73.95811258,-1.916527659e-05,-3.011871128e-06,-3.305983535e-07
587.183,2.180818439,-0.2975093046,-32.10429874,3.833144023,0.3468817066,,73.95811255,-1.356414729e-05,-2.339216948e-06,-2.502291365e-07
587.283,2.180818425,-0.2975091146,-32.10429846,3.833142895,0.3468815002,,73.95811253,-8.699893215e-06,-1.740782384e-06,-1.779236831e-07
587.383,2.180818598,-0.2975091148,-32.10429844,3.833142222,0.3468813514,,73.95811251,-4.506902649e-06,-1.200394702e-06,-1.147401169e-07
587.483,2.180818926,-0.297509183,-32.10429873,3.833141942,0.3468812531,,73.9581125,-8.737911826e-07,-7.302572705e-07,-6.041617876e-08
587.583,2.180836437,-0.2975091643,-32.10429642,3.833141955,0.3468811992,,73.9581125,-2.856910334e-06,-3.244499024e-07,-3.98751345e-08
587.683,2.180822088,-0.2975091251,-32.10429775,3.833141312,0.3468811824,,73.95811249,-8.194899917e-06,2.061963825e-08,-3.960425662e-08
587.783,2.180817689,-0.2975093493,-32.10429916,3.833140578,0.3468811996,,73.95811249,-5.641291202e-06,3.341866364e-07,-3.368598558e-09
587.883,2.180816894,-0.2975092663,-32.10429829,3.833140215,0.346881246,,73.95811249,-1.179697967e-06,6.037634236e-07,4.160935852e-08
