Time,Acceleration_X,Acceleration_Y,Acceleration_Z,Pitch_degree,Roll_degree,Yaw_degree,Heading_degree,Pitch_rate,Roll_rate,Yaw_rate
1,2.698459482,-0.02752177732,-32.06250623,4.840066369,-0.2677380836,,98.77013421,0,0,0
1,2.698459482,-0.02752177732,-32.06250623,4.840066369,-0.2677380836,,98.77013421,0,0,0
1,2.698459482,-0.02752177732,-32.06250623,4.840066369,-0.2677380836,,98.77013421,0,0,0
1,2.698459482,-0.02752177732,-32.06250623,4.840066369,-0.2677380836,,98.77013421,0,0,0
1,2.698459482,-0.02752177732,-32.06250623,4.840066369,-0.2677380836,,98.77013421,0,0,0
1,2.698459482,-0.02752177732,-32.06250623,4.840066369,-0.2677380836,,98.77013421,0,0,0
1,2.698459482,-0.02752177732,-32.06250623,4.840066369,-0.2677380836,,98.77013421,0,0,0
1,2.698459482,-0.02752177732,-32.06250623,4.840066369,-0.2677380836,,98.77013421,0,0,0
1,2.698459482,-0.02752177732,-32.06250623,4.840066369,-0.2677380836,,98.77013421,0,0,0
1,2.698459482,-0.02752177732,-32.06250623,4.840066369,-0.2677380836,,98.77013421,0,0,0
2,2.700311521,0.04827700612,-32.06243986,4.843098881,-0.2758569009,,98.7694711,0.0003942677158,-0.001225222115,-9.975322716e-05
2,2.700311521,0.04827700612,-32.06243986,4.843098881,-0.2758569009,,98.7694711,0.0003942677158,-0.001225222115,-9.975322716e-05
2,2.700311521,0.04827700612,-32.06243986,4.843098881,-0.2758569009,,98.7694711,0.0003942677158,-0.001225222115,-9.975322716e-05
2,2.700311521,0.04827700612,-32.06243986,4.843098881,-0.2758569009,,98.7694711,0.0003942677158,-0.001225222115,-9.975322716e-05
2,2.700311521,0.04827700612,-32.06243986,4.843098881,-0.2758569009,,98.7694711,0.0003942677158,-0.001225222115,-9.975322716e-05
2,2.700311521,0.04827700612,-32.06243986,4.843098881,-0.2758569009,,98.7694711,0.0003942677158,-0.001225222115,-9.975322716e-05
2,2.700311521,0.04827700612,-32.06243986,4.843098881,-0.2758569009,,98.7694711,0.0003942677158,-0.001225222115,-9.975322716e-05
2,2.700311521,0.04827700612,-32.06243986,4.843098881,-0.2758569009,,98.7694711,0.0003942677158,-0.001225222115,-9.975322716e-05
2,2.700311521,0.04827700612,-32.06243986,4.843098881,-0.2758569009,,98.7694711,0.0003942677158,-0.001225222115,-9.975322716e-05
2,2.700311521,0.04827700612,-32.06243986,4.843098881,-0.2758569009,,98.7694711,0.0003942677158,-0.001225222115,-9.975322716e-05
2.70833,2.699913835,0.04855504389,-32.06255789,4.842715031,-0.2770276922,,98.76937997,-6.634434056e-05,-0.0001680241662,-1.301283317e-05
2.70833,2.699913835,0.04855504389,-32.06255789,4.842715031,-0.2770276922,,98.76937997,-6.634434056e-05,-0.0001680241662,-1.301283317e-05
2.70833,2.699913835,0.04855504389,-32.06255789,4.842715031,-0.2770276922,,98.76937997,-6.634434056e-05,-0.0001680241662,-1.301283317e-05
2.70833,2.699913835,0.04855504389,-32.06255789,4.842715031,-0.2770276922,,98.76937997,-6.634434056e-05,-0.0001680241662,-1.301283317e-05
2.70833,2.699913835,0.04855504389,-32.06255789,4.842715031,-0.2770276922,,98.76937997,-6.634434056e-05,-0.0001680241662,-1.301283317e-05
2.70833,2.699913835,0.04855504389,-32.06255789,4.842715031,-0.2770276922,,98.76937997,-6.634434056e-05,-0.0001680241662,-1.301283317e-05
2.70833,2.699913835,0.04855504389,-32.06255789,4.842715031,-0.2770276922,,98.76937997,-6.634434056e-05,-0.0001680241662,-1.301283317e-05
2.84167,2.699805548,0.04885201215,-32.06253239,4.842550547,-0.277532267,,98.7693407,-7.444396786e-05,-0.0001969426233,-1.527575339e-05
2.9,2.699861032,0.04885696019,-32.06260092,4.842530489,-0.2775677487,,98.76933798,-0.0001576479661,-0.0002097627423,-1.583374169e-05
3.00833,2.699882599,0.04879966685,-32.06246715,4.842510098,-0.2775923895,,98.76933613,-0.0002059982572,-0.0002283484592,-1.705038484e-05
3.11667,2.699852515,0.04880726785,-32.06250931,4.842484406,-0.2776168495,,98.76933433,-0.0002706980646,-0.0002272045234,-1.660349491e-05
3.20833,2.699836148,0.04885168833,-32.06259557,4.842458531,-0.27763801,,98.76933279,-0.0002947341884,-0.000229773379,-1.66741548e-05
3.31667,2.69978396,0.04885301079,-32.06254526,4.8424254,-0.2776632792,,98.76933096,-0.0003179939821,-0.0002383669587,-1.723020257e-05
3.425,2.699754183,0.0488403544,-32.06250092,4.842390381,-0.2776892404,,98.76932908,-0.0003270471073,-0.0002502948829,-1.812980792e-05
3.525,2.699746279,0.0489023355,-32.06254985,4.842358346,-0.277715061,,98.7693272,-0.0003187151124,-0.0002598220534,-1.893424454e-05
3.61667,2.699716952,0.04887673561,-32.06257606,4.842331584,-0.2777367438,,98.76932562,-0.0003233780884,-0.0002664991914,-1.944038332e-05
3.71667,2.699685421,0.0489266531,-32.06261218,4.842294856,-0.2777696423,,98.76932321,-0.0003072266042,-0.0002970094486,-2.195470162e-05
3.825,2.699660461,0.04892767449,-32.06255649,4.842264737,-0.2777995357,,98.76932099,-0.0002922144063,-0.0003072407267,-2.285622446e-05
3.91667,2.69965477,0.04894865163,-32.06262707,4.842238703,-0.2778275542,,98.7693189,-0.0002769803234,-0.0003082209098,-2.301421464e-05
4.025,2.699659533,0.0489692731,-32.06259259,4.842209081,-0.2778616573,,98.76931635,-0.000270177444,-0.0003295330714,-2.474800166e-05
4.4,2.699627446,0.04904186288,-32.06254558,4.842184568,-0.2778923651,,98.76931404,-0.0002681509643,-0.0003396625738,-2.556660892e-05
4.4,2.699627446,0.04904186288,-32.06254558,4.842184568,-0.2778923651,,98.76931404,-0.0002681509643,-0.0003396625738,-2.556660892e-05
4.4,2.699627446,0.04904186288,-32.06254558,4.842184568,-0.2778923651,,98.76931404,-0.0002681509643,-0.0003396625738,-2.556660892e-05
4.44167,2.699541029,0.04918607064,-32.06259714,4.84210532,-0.2780339288,,98.76930321,-0.0001736025594,-0.0003226799176,-2.473949857e-05
4.50833,2.699567407,0.04907208281,-32.06260383,4.842092043,-0.2780597468,,98.76930122,-0.0001437650851,-0.0003042645774,-2.343680581e-05
4.61667,2.699568817,0.04905532543,-32.06252827,4.842077354,-0.2780937113,,98.7692986,-0.0001245262605,-0.0003390142003,-2.630563606e-05
4.70833,2.699540999,0.04908790935,-32.06245552,4.842066548,-0.2781257524,,98.76929611,-0.0001097549761,-0.0003661717973,-2.855392636e-05
4.81667,2.699555675,0.04914065436,-32.06253458,4.842055666,-0.2781680471,,98.7692928,-9.443080339e-05,-0.0004149304671,-3.251716148e-05
4.9,2.699555952,0.04919205013,-32.06257637,4.842047862,-0.2782064449,,98.76928979,-7.645012124e-05,-0.0004282444284,-3.367532426e-05
5.00833,2.699541716,0.04915906996,-32.06257535,4.842040572,-0.2782531168,,98.76928611,-5.484744361e-05,-0.0004554715889,-3.596298236e-05
5.11667,2.699532507,0.0492149851,-32.06251032,4.842036091,-0.2782991771,,98.76928247,-3.503212397e-05,-0.0004747951319,-3.761156705e-05
5.2,2.699540102,0.04923421106,-32.06263672,4.842034135,-0.2783393568,,98.76927928,-9.152376839e-06,-0.0005036494732,-4.005016452e-05
5.3,2.699531973,0.04927248806,-32.06251219,4.842034137,-0.2783953922,,98.76927482,9.893088742e-06,-0.0005316941883,-4.238914798e-05
5.40833,2.699533748,0.04926588271,-32.06251726,4.842036763,-0.2784534242,,98.76927018,3.777077124e-05,-0.0005565375577,-4.452184737e-05
5.5,2.699546155,0.04932090402,-32.06263831,4.84204061,-0.2785000553,,98.76926645,5.789452046e-05,-0.00057086235,-4.577331852e-05
5.60833,2.699556902,0.04936524561,-32.06260443,4.842048747,-0.2785679845,,98.76926099,8.200711569e-05,-0.0006123178624,-4.920575912e-05
5.71667,2.699567396,0.04939623613,-32.0626557,4.842057382,-0.2786303219,,98.76925598,9.517933551e-05,-0.000640563727,-5.152762211e-05
5.80833,2.699558613,0.04942625745,-32.06258767,4.842067233,-0.2786896098,,98.76925121,0.0001224181989,-0.000657728628,-5.304562613e-05
5.9,2.699574064,0.04944644496,-32.06253593,4.842078987,-0.2787508532,,98.76924627,0.0001342393225,-0.0006892948591,-5.562457121e-05
6.00833,2.699576801,0.04948599687,-32.0626789,4.842095099,-0.278826368,,98.76924016,0.0001649562725,-0.0007065225447,-5.716586154e-05
6.11667,2.699570414,0.04955623583,-32.06243052,4.842113996,-0.2789056852,,98.76923374,0.0001887330761,-0.0007566884299,-6.129064089e-05
6.2,2.699576587,0.04956136592,-32.06257085,4.842130701,-0.2789697352,,98.76922855,0.0002163623058,-0.0007781604997,-6.31575248e-05
6.31667,2.699627999,0.0496553095,-32.06268398,4.842157779,-0.2790626772,,98.769221,0.0002500853603,-0.0008137374315,-6.617336526e-05
6.4,2.69964327,0.04970159311,-32.06268714,4.84218174,-0.2791391639,,98.76921478,0.0002757325162,-0.0008640520831,-7.032193118e-05
6.50833,2.699624659,0.04970909739,-32.06251443,4.842212985,-0.2792333246,,98.76920711,0.0003065234139,-0.0008879241276,-7.239288674e-05
6.6,2.699655733,0.04974637844,-32.06252999,4.842239573,-0.2793082493,,98.769201,0.0003325523628,-0.000919765616,-7.507250532e-05
6.7,2.699669639,0.04983909999,-32.0624168,4.842277101,-0.2794102654,,98.76919267,0.0003636730606,-0.0009698489379,-7.923284622e-05
6.81667,2.699668081,0.04988359667,-32.06258654,4.842318054,-0.2795167982,,98.76918396,0.0003970280634,-0.0009974287736,-8.161290586e-05
6.90833,2.699700871,0.04992426457,-32.06256654,4.842355137,-0.2796104681,,98.76917629,0.00041327601,-0.001041556124,-8.521775958e-05
7.00833,2.699733811,0.0499657696,-32.0625029,4.842401945,-0.2797254585,,98.76916688,0.000451786114,-0.001086354672,-8.899871652e-05
7.11667,2.699783259,0.0500106819,-32.06251082,4.842448427,-0.2798353497,,98.76915787,0.0004822370105,-0.001131855785,-9.278907838e-05
7.21667,2.699815297,0.05010131785,-32.06265116,4.842498107,-0.2799503118,,98.76914844,0.0005134740082,-0.001174158679,-9.633234529e-05
7.3,2.699837942,0.05015778356,-32.06246892,4.84254173,-0.2800492451,,98.76914032,0.0005310605291,-0.001202059745,-9.865225732e-05
7.4,2.699840742,0.05020785223,-32.06249503,4.842596674,-0.2801725094,,98.7691302,0.000573575577,-0.001263944682,-0.0001038154385
7.5,2.699894859,0.05030090817,-32.06251677,4.842660452,-0.2803117186,,98.76911877,0.000609161043,-0.001322113535,-0.0001086463602
7.6,2.699921643,0.0503508377,-32.06253801,4.842717207,-0.2804341667,,98.7691087,0.000634632378,-0.001372187656,-0.0001127788375
7.71667,2.699940702,0.05052735097,-32.06248906,4.842793023,-0.2805965263,,98.76909535,0.0006702034611,-0.001422824906,-0.0001170057814
7.80833,2.70001634,0.05057891733,-32.06254334,4.842855244,-0.2807286059,,98.76908449,0.0006910543468,-0.001467863996,-0.0001207094729
7.9,2.70001997,0.05067671701,-32.06251566,4.842925561,-0.2808773634,,98.76907226,0.000720311918,-0.001525366028,-0.0001254519733
8.01667,2.700088758,0.05075192571,-32.06251422,4.843005451,-0.281043764,,98.76905856,0.0007582579097,-0.001564089762,-0.0001287475366
8.10833,2.700096645,0.05087578024,-32.06239806,4.84307593,-0.281189371,,98.76904658,0.0007877189792,-0.00161915664,-0.0001332974256
8.20833,2.700152326,0.05090027268,-32.06238972,4.84316304,-0.2813665713,,98.76903199,0.0008282364679,-0.001681780218,-0.0001385115462
8.3,2.700198013,0.05093851844,-32.06251914,4.843232697,-0.2815074773,,98.76902038,0.0008455345333,-0.001710622897,-0.000140906486
8.41667,2.700243221,0.05108850991,-32.06248512,4.84333303,-0.2817111678,,98.7690036,0.0008811803418,-0.001792520424,-0.0001476289642
8.5,2.700302776,0.05123161651,-32.0624358,4.843407094,-0.2818620653,,98.76899118,0.0008977228762,-0.001846415951,-0.0001520141442
8.61667,2.700388471,0.05125313664,-32.06249021,4.843512993,-0.282078979,,98.76897331,0.0009168113202,-0.001887722979,-0.0001554136493
8.7,2.700397637,0.05130197537,-32.06249654,4.843589711,-0.2822380345,,98.76896022,0.0009252600357,-0.001942020925,-0.0001597877126
8.8,2.700437743,0.05143700114,-32.06256523,4.843683293,-0.2824346733,,98.76894404,0.0009443672678,-0.001989381831,-0.0001636727208
8.9,2.700554126,0.05165400062,-32.06237121,4.843785979,-0.2826541447,,98.768926,0.0009528047912,-0.002080619282,-0.0001709850392
9.00833,2.700609956,0.05170853567,-32.06249752,4.84388088,-0.2828634156,,98.7689088,0.0009467513236,-0.002121709249,-0.0001742285013
9.10833,2.700655269,0.05187680176,-32.06238827,4.843982066,-0.2830964352,,98.76888968,0.0009210385947,-0.002207493637,-0.0001809249306
9.20833,2.700782485,0.05192578526,-32.06253127,4.844072184,-0.2833186852,,98.76887148,0.0008707069091,-0.002259040599,-0.0001847575712
9.31667,2.700844216,0.05207354009,-32.06253975,4.844155908,-0.2835469167,,98.76885284,0.000789973857,-0.002315969591,-0.0001888511532
9.4,2.700943126,0.05212475847,-32.06253967,4.844217625,-0.2837420446,,98.76883695,0.0006730905942,-0.002371171932,-0.0001926095874
9.50833,2.701118056,0.05241467481,-32.06235771,4.84428167,-0.2840223924,,98.76881427,0.0003684913061,-0.002451242839,-0.0001973073725
9.61667,2.701539843,0.0524626441,-32.06251957,4.844297733,-0.2842688499,,98.76879454,-0.0001628815587,-0.002496133968,-0.0001979550016
9.71667,2.701962239,0.0001207457043,-32.06284543,4.844224043,-0.2862253844,,98.76863909,-0.001630154846,-0.06439054881,-0.005120618885
9.8,2.701491089,0.06634285575,-32.06285644,4.844044381,-0.2927422722,,98.76812093,-0.002348347081,-0.0705205227,-0.005604767118
9.9,2.753410757,0.1011253452,-32.04788391,4.843294818,-0.2990764375,,98.7676205,-0.03167815909,-0.04791230131,-0.003641368531
10.0083,2.687048191,0.1379828864,-32.06088461,4.839228513,-0.3018236228,,98.76742418,-0.04000858726,0.01688404054,0.001564250845
10.1167,2.68233424,0.05942949052,-32.06306274,4.835930437,-0.2986704935,,98.76769318,-0.02436901195,0.03694525558,0.003072254993
10.2,2.686754317,0.05169307838,-32.05977621,4.834118534,-0.2952669536,,98.76797376,-0.01202387239,0.02982685432,0.002437185939
10.3,2.689331569,0.05103722664,-32.06258444,4.833259057,-0.2926418424,,98.76818714,-0.004996002371,0.02229590688,0.001799474601
10.4083,2.691355615,0.05162647783,-32.06232295,4.832976537,-0.2906947551,,98.76834344,-0.000680869054,0.01645957472,0.001311769624
10.5083,2.692909723,0.05206804823,-32.06224188,4.833027001,-0.2892569686,,98.76845741,0.001607253719,0.01215959121,0.0009574510219
10.6083,2.693959512,0.05237579281,-32.06251199,4.833242268,-0.2881919832,,98.76854086,0.002621732386,0.009040212175,0.0007039976909
10.7083,2.69470599,0.05254476058,-32.062911,4.833547474,-0.2873414522,,98.76860678,0.002949110349,0.006620135464,0.000509891188
10.8167,2.695117641,0.05270252951,-32.06308559,4.833840519,-0.2867580078,,98.76865153,0.002877819654,0.005015309231,0.0003827620531
10.9083,2.695337837,0.05280225698,-32.06290974,4.834118751,-0.286312882,,98.76868538,0.002657644958,0.003848455478,0.0002912503904
11.0083,2.695501257,0.05281894841,-32.06294294,4.834372326,-0.2859694841,,98.76871128,0.002389275619,0.002992836922,0.0002247311592
11.1,2.695624541,0.05292042339,-32.06283464,4.834580839,-0.2857203677,,98.76872993,0.002144058357,0.002427199577,0.0001811282167
11.2083,2.695655381,0.05291452613,-32.06261755,4.83478397,-0.2855006834,,98.76874627,0.001907440501,0.001949558939,0.0001444730399
11.3083,2.695774527,0.05289877916,-32.06291278,4.834979377,-0.2853085677,,98.76876047,0.001690203799,0.001580376363,0.0001163272384
11.4083,2.69583194,0.0528630677,-32.06284264,4.835140359,-0.2851626013,,98.76877119,0.001521526721,0.001335547164,9.779191075e-05
11.5167,2.695891447,0.05289141949,-32.06292717,4.835285774,-0.2850386404,,98.76878024,0.0013800828,0.001140751728,8.30924169e-05
11.6,2.695926404,0.05287654164,-32.06277594,4.835396607,-0.284948524,,98.7687868,0.001271513448,0.001013676358,7.358832133e-05
11.7,2.696037026,0.05277410637,-32.06291587,4.83552835,-0.2848443159,,98.76879435,0.001154324438,0.000901865561,6.534202094e-05
11.8,2.696033959,0.05279556477,-32.06293208,4.835639026,-0.284758939,,98.76880053,0.001054865086,0.000809498176,5.854777547e-05
11.9,2.696102398,0.05275150193,-32.06290651,4.835740974,-0.2846818267,,98.7688061,0.0009799342595,0.0007365042802,5.315916965e-05
12.0083,2.696152768,0.05268611207,-32.06298912,4.835835068,-0.2846108708,,98.76881123,0.0009025728092,0.0006748512476,4.868470019e-05
12.1083,2.69620549,0.05269993553,-32.06292266,4.835928987,-0.284540093,,98.76881634,0.000834428313,0.0006386342038,4.618154317e-05
12.2,2.696230718,0.05265673263,-32.06282738,4.835996577,-0.2844881438,,98.76882009,0.0007857594301,0.0006035997415,4.366795898e-05
12.3167,2.696244968,0.05266030567,-32.06279999,4.836084593,-0.2844195522,,98.76882506,0.0007263028545,0.0005742467309,4.166302237e-05
12.4083,2.696301081,0.05258843428,-32.06279799,4.836149356,-0.2843678488,,98.76882882,0.0006874480902,0.0005454041698,3.957880383e-05
12.5167,2.69632785,0.05253837798,-32.06291507,4.83622221,-0.2843107551,,98.76883296,0.0006544261046,0.0005086627287,3.684123605e-05
12.6083,2.696385578,0.05252702913,-32.06283638,4.836280884,-0.2842653054,,98.76883625,0.000619660012,0.0004792034674,3.468917204e-05
12.7,2.696384889,0.05253942542,-32.06274219,4.836336506,-0.2842231219,,98.76883929,0.0005972734295,0.0004462546319,3.219742089e-05
12.8167,2.696429673,0.05249170144,-32.06291525,4.836405375,-0.2841720049,,98.76884298,0.0005717309655,0.0004249196908,3.063925612e-05
12.9083,2.696501504,0.05247812406,-32.06287943,4.836461336,-0.2841309592,,98.76884594,0.0005414435996,0.0004087881565,2.952301396e-05
13,2.696495477,0.05244118171,-32.06281883,4.836509483,-0.2840945963,,98.76884856,0.0005104284446,0.0003840084662,2.772382853e-05
13.1,2.696477257,0.0524487779,-32.06275723,4.836558979,-0.2840570526,,98.76885128,0.0004929136236,0.0003663989477,2.642405113e-05
13.2083,2.696551137,0.05242429358,-32.0628228,4.83660741,-0.284021827,,98.76885381,0.0004689460353,0.0003438899254,2.47628927e-05
13.3083,2.69655857,0.05238411532,-32.06282345,4.836652997,-0.2839890091,,98.76885617,0.0004452138035,0.0003135798758,2.24832753e-05
13.4,2.69658532,0.05242745216,-32.06282282,4.836692301,-0.283960834,,98.76885819,0.0004119986094,0.0003073629919,2.217550192e-05
13.5167,2.696599356,0.0523385096,-32.06284098,4.83673914,-0.283925672,,98.76886073,0.0003916418051,0.0002797988444,2.009553445e-05
13.6167,2.696659849,0.05234986739,-32.06282553,4.836777733,-0.2838981664,,98.76886271,0.0003790351765,0.0002688775483,1.929323287e-05
13.7083,2.696629355,0.0523493328,-32.06270893,4.836811266,-0.2838746093,,98.76886439,0.0003563080151,0.0002481702182,1.777064556e-05
13.8,2.69666474,0.05234465168,-32.0628166,4.836843653,-0.2838526813,,98.76886596,0.0003437458984,0.0002224759444,1.580089417e-05
13.9167,2.696669469,0.05232343715,-32.06278407,4.836883026,-0.2838271412,,98.76886777,0.0003365588514,0.0002173652171,1.543099637e-05
14.0083,2.696705691,0.05227057258,-32.06282851,4.836913277,-0.2838076096,,98.76886916,0.0003205823627,0.000206935052,1.468992365e-05
14.1167,2.696722479,0.0523066388,-32.06289653,4.836946885,-0.2837871547,,98.7688706,0.0002996125057,0.0001730342506,1.211321453e-05
14.2083,2.696745499,0.05228235301,-32.06280131,4.836973881,-0.2837715574,,98.76887169,0.0002868756409,0.0001676783971,1.175603892e-05
14.3,2.696758814,0.05228906647,-32.06278054,4.837002337,-0.2837551706,,98.76887284,0.000278976596,0.0001640115402,1.150519117e-05
14.4083,2.696767493,0.0522549577,-32.06274261,4.83703261,-0.2837389166,,98.76887397,0.0002761178227,0.0001349642178,9.211072705e-06
14.5,2.696779889,0.05228844197,-32.06283106,4.837054835,-0.2837280678,,98.76887471,0.0002570761159,0.000127206661,8.70206974e-06
14.6083,2.696804436,0.05226665478,-32.06278403,4.837082138,-0.2837152353,,98.76887558,0.0002438386834,0.0001143974067,7.756802231e-06
14.7,2.696804787,0.05222193725,-32.06268363,4.8371046,-0.2837056862,,98.76887621,0.0002456698588,8.741711216e-05,5.599749471e-06
14.8167,2.696749613,0.05223231632,-32.06274243,4.837131987,-0.2836968171,,98.76887677,0.0002427952099,6.55787236e-05,3.874913906e-06
14.9083,2.696714964,0.05226529535,-32.06273165,4.837160163,-0.2836911761,,98.76887706,0.000342196218,5.18273612e-05,2.238528904e-06
15,2.69677165,0.05224426903,-32.06287636,4.837191662,-0.2836866879,,98.76887724,0.0004248875152,5.557953843e-05,2.08088059e-06
15.1167,2.696800006,0.05222399603,-32.06274951,4.837247057,-0.2836815727,,98.76887734,0.0005318870481,2.63126591e-05,-8.37463497e-07
15.2083,2.696819848,0.0522343383,-32.06276731,4.837303998,-0.2836798209,,98.76887717,0.0006262033469,1.091382581e-05,-2.587228108e-06
15.3,2.696669187,0.05228917308,-32.06278873,4.837360126,-0.2836786856,,98.76887695,0.0007965618479,2.725923272e-05,-2.226831587e-06
15.4083,2.696693768,0.05229170953,-32.06278868,4.837469325,-0.2836698809,,98.76887705,0.001251813067,0.0001427043818,4.447635085e-06
15.5167,2.697111702,0.05223545509,-32.06267188,4.837616298,-0.2836533479,,98.76887755,0.001393588332,0.0001563917547,4.757781736e-06
15.6,2.697300489,0.05216809153,-32.06279107,4.837728065,-0.2836417955,,98.76887786,0.001263885402,0.0001168988563,2.332323793e-06
15.7,2.697409076,0.05216752568,-32.06270889,4.837853786,-0.2836319234,,98.76887795,0.001036084,6.536584524e-05,-5.115992886e-07
15.8167,2.697985544,0.05221152992,-32.06319492,4.837953628,-0.2836269247,,98.7688778,0.0007084857063,4.298111162e-05,-4.842070414e-07
15.9083,2.697981543,0.05219540678,-32.06252388,4.837982601,-0.2836242029,,98.76887785,-0.0001451743081,1.313254371e-05,1.846442038e-06
16.0167,2.69744655,0.0522309599,-32.06259556,4.837938244,-0.2836245024,,98.76887807,-0.0006199796969,-2.310587514e-06,3.232394485e-06
16.1,2.697148472,0.05216912822,-32.0626811,4.837884327,-0.2836246115,,98.76887836,-0.0006432094347,-1.53538127e-05,2.327544386e-06
16.2083,2.697046349,0.05220857094,-32.06273123,4.837821332,-0.2836277822,,98.76887846,-0.0004964291245,-4.220168849e-05,-6.178876776e-07
16.3083,2.697022562,0.05217329813,-32.06266067,4.837776655,-0.2836341448,,98.7688782,-0.0003171356752,-7.533673994e-05,-4.246936064e-06
16.4,2.697058898,0.05223715961,-32.06266074,4.837754365,-0.2836400481,,98.76887785,-0.0002139170356,-5.818463427e-05,-3.452030537e-06
16.5,2.697088308,0.05223966181,-32.06268505,4.837736001,-0.2836453126,,98.76887753,-0.0001287693689,-4.229354424e-05,-2.65222187e-06
16.6,2.69710191,0.0522171837,-32.06268055,4.837725772,-0.283649001,,98.7688773,-7.728849914e-05,-3.015929637e-05,-1.974413789e-06
16.7167,2.697113865,0.05227140522,-32.06273595,4.837719343,-0.2836518243,,98.76887711,-3.899704283e-05,-2.157250832e-05,-1.49995634e-06
16.8,2.697110849,0.05225399604,-32.06269595,4.837717136,-0.2836529252,,98.76887703,-1.791648855e-05,-1.033049398e-05,-7.212366019e-07
17.0083,2.697100162,0.05222019703,-32.06269347,4.837716655,-0.2836531791,,98.76887701,-6.71551672e-06,-6.440794249e-06,-4.766545496e-07
17.0083,2.697100162,0.05222019703,-32.06269347,4.837716655,-0.2836531791,,98.76887701,-6.71551672e-06,-6.440794249e-06,-4.766545496e-07
17.1083,2.69713874,0.05224089174,-32.06274952,4.837717823,-0.2836535589,,98.76887698,1.298961258e-05,1.841462359e-05,1.391741966e-06
17.2083,2.697154254,0.05222443989,-32.06275197,4.837719309,-0.2836509089,,98.76887718,1.940159306e-06,9.085852106e-06,7.12495775e-07
17.5,2.69714931,0.05222538113,-32.06275554,4.837719318,-0.2836504775,,98.76887721,-1.76646086e-06,8.135375283e-06,6.54765388e-07
17.5,2.69714931,0.05222538113,-32.06275554,4.837719318,-0.2836504775,,98.76887721,-1.76646086e-06,8.135375283e-06,6.54765388e-07
17.5,2.69714931,0.05222538113,-32.06275554,4.837719318,-0.2836504775,,98.76887721,-1.76646086e-06,8.135375283e-06,6.54765388e-07
17.6,2.697141105,0.05222442439,-32.06276012,4.837717384,-0.2836467294,,98.76887752,-9.936491824e-07,1.984528646e-06,1.618651927e-07
17.8083,2.697141722,0.05222506267,-32.06275955,4.837717356,-0.2836466458,,98.76887753,-2.12174487e-07,2.142588151e-06,1.705163858e-07
17.8083,2.697141722,0.05222506267,-32.06275955,4.837717356,-0.2836466458,,98.76887753,-2.12174487e-07,2.142588151e-06,1.705163858e-07
17.9083,2.697143407,0.05222431573,-32.06276021,4.837717605,-0.2836457013,,98.7688776,1.242564792e-06,3.41433949e-06,2.622160434e-07
18,2.697143423,0.05222424959,-32.06275967,4.837717719,-0.2836453742,,98.76887763,1.241128609e-06,3.79527198e-06,2.920289546e-07
18.1167,2.697143598,0.05222390915,-32.06276062,4.837717852,-0.2836449448,,98.76887766,1.223805344e-06,4.185456016e-06,3.250103414e-07
18.2083,2.697143657,0.05222366311,-32.06276032,4.837717964,-0.2836445516,,98.76887769,1.216462349e-06,4.440631757e-06,3.453768813e-07
18.3,2.697143704,0.05222349345,-32.06275984,4.837718076,-0.2836441385,,98.76887772,1.213878173e-06,4.619765461e-06,3.584431765e-07
18.4167,2.69714377,0.05222258947,-32.06276006,4.837718219,-0.2836435811,,98.76887777,1.242926079e-06,4.926772816e-06,3.829986061e-07
18.575,2.697143846,0.052222624,-32.06275996,4.837718341,-0.2836430956,,98.76887781,1.217043591e-06,4.867836636e-06,3.793513248e-07
18.6583,2.697153677,0.05219968374,-32.0628,4.837718446,-0.2836426652,,98.76887784,6.717986395e-07,3.10109299e-06,2.413637147e-07
18.7083,2.697145448,0.05221577027,-32.06275654,4.837718343,-0.2836426061,,98.76887784,-1.694408586e-06,-2.910956182e-07,-1.244643421e-08
18.8,2.697141677,0.05223286031,-32.06276472,4.837718238,-0.2836425641,,98.76887785,-1.222192054e-06,2.695068569e-06,2.189843288e-07
18.9167,2.697144502,0.05221878338,-32.06275683,4.837718106,-0.2836424639,,98.76887786,-1.915121675e-06,1.734421314e-08,1.464830783e-08
19.25,2.69714434,0.05222058555,-32.06275922,4.837717979,-0.2836423491,,98.76887787,-1.966178898e-06,9.533344957e-08,2.019703467e-08
19.25,2.69714434,0.05222058555,-32.06275922,4.837717979,-0.2836423491,,98.76887787,-1.966178898e-06,9.533344957e-08,2.019703467e-08
19.25,2.69714434,0.05222058555,-32.06275922,4.837717979,-0.2836423491,,98.76887787,-1.966178898e-06,9.533344957e-08,2.019703467e-08
19.3667,2.697143179,0.05222125273,-32.06275935,4.837717641,-0.2836413668,,98.76887795,-7.284725628e-07,1.748294453e-06,1.439103914e-07
19.4,2.697143144,0.05222113727,-32.06276034,4.837717586,-0.2836410808,,98.76887797,-2.261014918e-07,2.601360707e-06,2.071660527e-07
19.5,2.697143092,0.05222187678,-32.06275979,4.837717579,-0.2836407845,,98.76887799,1.232716506e-07,3.031523205e-06,2.377921392e-07
19.6,2.697143156,0.05222163177,-32.06275985,4.837717605,-0.2836404569,,98.76887802,4.175120848e-07,3.595291315e-06,2.80656291e-07
19.7,2.697143064,0.0522255837,-32.06275824,4.837717683,-0.2836401516,,98.76887804,1.604497163e-06,2.094772421e-06,1.548934447e-07
19.8167,2.697143558,0.05222578387,-32.06275795,4.837717848,-0.2836397905,,98.76887807,1.873703678e-06,2.67201311e-06,1.993428514e-07
19.9083,2.697144174,0.05222611804,-32.0627591,4.837717984,-0.2836395687,,98.76887809,2.064292938e-06,2.945422359e-06,2.198633048e-07
20.0083,2.697144561,0.05222461616,-32.06275795,4.837718176,-0.2836391648,,98.76887812,1.647596446e-06,4.409409668e-06,3.402447488e-07
20.1083,2.69714533,0.05222267524,-32.06276145,4.837718353,-0.283638708,,98.76887815,1.227829474e-06,5.364993552e-06,4.18385468e-07
20.2083,2.69714447,0.05220632485,-32.06276111,4.837718462,-0.2836385372,,98.76887817,2.359627081e-07,-6.945923628e-06,-5.519343181e-07
20.3083,2.697135278,0.05222299992,-32.06273078,4.837718415,-0.2836385113,,98.76887817,-4.579965843e-07,-1.346662568e-06,-1.024631633e-07
20.4083,2.697132595,0.05222170836,-32.06271166,4.837718315,-0.2836385624,,98.76887816,-4.843558905e-07,3.001442897e-07,2.392289943e-08
20.5083,2.697132431,0.05222154652,-32.06271191,4.837718239,-0.2836384816,,98.76887817,-6.838016034e-08,1.60623997e-06,1.255150961e-07
20.6083,2.697136892,0.05220443863,-32.06272473,4.837718146,-0.2836384589,,98.76887817,-1.312682942e-06,-3.43320355e-07,-2.156049661e-08
20.7,2.697147263,0.05223093345,-32.06278385,4.837718039,-0.2836384834,,98.76887817,-1.001587142e-06,5.024280338e-07,4.863930558e-08
20.8083,2.697140664,0.0522125221,-32.06276434,4.837717961,-0.2836383555,,98.76887818,3.294859344e-07,-9.159786348e-07,-7.20663877e-08
20.9,2.697147979,0.05223130287,-32.06278648,4.837717966,-0.2836382093,,98.76887819,1.079641806e-07,2.415080145e-06,1.926554543e-07
21.0083,2.697140447,0.05221085741,-32.06275899,4.837718025,-0.2836379403,,98.76887822,9.735423092e-07,1.749565004e-06,1.358535026e-07
21.1,2.697143868,0.05221243148,-32.06276433,4.83771823,-0.2836377447,,98.76887823,2.600919564e-06,1.884168224e-06,1.385931895e-07
21.2083,2.697142337,0.05221388748,-32.0627624,4.83771842,-0.2836373465,,98.76887826,1.911163737e-06,1.435300504e-06,1.058880202e-07
21.3167,2.697143679,0.0522120472,-32.06276287,4.837718686,-0.2836369609,,98.76887829,2.101263175e-06,2.86893677e-06,2.188025324e-07
21.4,2.69714333,0.05221194965,-32.06276336,4.837718822,-0.2836366515,,98.76887831,1.323778422e-06,3.315511149e-06,2.577111935e-07
21.5083,2.697141079,0.05220863905,-32.06272162,4.83771923,-0.2836362876,,98.76887834,2.683882821e-06,4.207758119e-06,3.180813433e-07
21.6167,2.697142889,0.05223572162,-32.06281654,4.837719419,-0.283635815,,98.76887838,3.150172634e-06,4.109738324e-06,3.112566753e-07
21.7167,2.697152016,0.05223328279,-32.06278345,4.83771968,-0.2836354138,,98.76887841,1.130894143e-06,5.061788989e-06,3.991421117e-07
21.8,2.697146329,0.05223907546,-32.06279398,4.837720102,-0.2836347428,,98.76887846,1.015936498e-05,1.225042138e-05,9.203176683e-07
21.9,2.697148185,0.05221356869,-32.0627636,4.83772095,-0.2836335707,,98.76887855,6.933705822e-06,9.567601861e-06,7.256031816e-07
22,2.697139259,0.05222829855,-32.06275171,4.837721502,-0.2836325843,,98.76887863,6.265770504e-06,1.174082827e-05,8.975789825e-07
22.1,2.69715115,0.05221020822,-32.0627617,4.837721914,-0.2836320125,,98.76887867,9.30282991e-07,-8.245285399e-07,-6.979732664e-08
22.2,2.697147114,0.05221321725,-32.06276268,4.837721832,-0.2836320988,,98.76887866,-2.602481888e-06,5.178774255e-07,5.788894735e-08
22.3167,2.697137137,0.0522177005,-32.0627579,4.837721815,-0.2836321126,,98.76887866,2.625923691e-06,1.645351551e-07,-1.51999484e-09
22.4167,2.697137014,0.05221576944,-32.06275859,4.837721877,-0.2836319087,,98.76887868,3.434327877e-06,1.687391102e-06,1.167328337e-07
22.525,2.697148627,0.05221726161,-32.06274342,4.837722018,-0.2836317276,,98.76887869,1.868615682e-06,2.182828953e-06,1.619703113e-07
22.6,2.697148936,0.05221672489,-32.06276043,4.837722176,-0.2836315221,,98.76887871,2.337220406e-07,2.81828633e-06,2.217923435e-07
22.7167,2.697138054,0.05221643726,-32.06275903,4.837722368,-0.2836311518,,98.76887874,2.957360482e-06,3.524767861e-06,2.631854664e-07
22.8,2.697149851,0.05221605399,-32.06275964,4.837722562,-0.2836308416,,98.76887876,4.4313097e-07,3.938611533e-06,3.096758045e-07
22.9,2.697138294,0.05221528326,-32.062786,4.837722716,-0.2836304365,,98.76887879,2.031795358e-06,4.196638327e-06,3.213675019e-07
23.0167,2.697139581,0.05221507141,-32.06277842,4.837723001,-0.2836299285,,98.76887883,2.417111405e-06,4.478425934e-06,3.405910248e-07
23.1083,2.697150089,0.0522150343,-32.06276882,4.83772316,-0.2836295095,,98.76887886,8.101939997e-07,4.653702319e-06,3.642297791e-07
23.2,2.697151419,0.05221488916,-32.06276137,4.837723335,-0.283629079,,98.7688789,1.655040026e-06,4.772408128e-06,3.691101246e-07
23.3167,2.697147427,0.0522276252,-32.06276729,4.837723578,-0.283628459,,98.76887894,1.228052799e-06,8.921512295e-06,7.002079637e-07
23.4167,2.697154742,0.05221426671,-32.06273278,4.837724185,-0.2836273955,,98.76887902,9.269104647e-06,1.277837256e-05,9.636949002e-07
23.525,2.697153077,0.05221162163,-32.06275399,4.837724821,-0.2836261818,,98.76887912,4.581767234e-06,1.124672042e-05,8.68267615e-07
23.625,2.697151283,0.05218904473,-32.06281593,4.837725387,-0.283625058,,98.7688792,3.933862326e-06,7.393515616e-06,5.648783908e-07
23.725,2.697151948,0.0522114878,-32.06275899,4.837725383,-0.2836248056,,98.76887922,-3.897089983e-06,4.655484695e-07,5.760343359e-08
23.825,2.697152609,0.05221286863,-32.06276977,4.83772525,-0.283624743,,98.76887923,-1.613199429e-06,1.147608059e-06,9.774831335e-08
23.9083,2.697141007,0.0522128264,-32.06278451,4.837725233,-0.2836246323,,98.76887924,-6.865787387e-07,1.908319681e-06,1.534778024e-07
24.0083,2.697154357,0.052213283,-32.06273476,4.837725294,-0.2836243739,,98.76887926,1.021611112e-06,2.907513191e-06,2.244969977e-07
24.1167,2.697141133,0.05221209044,-32.06276989,4.83772536,-0.2836240269,,98.76887929,1.360228127e-06,3.52510285e-06,2.711728268e-07
24.225,2.697154299,0.05221181228,-32.06276179,4.837725529,-0.283623618,,98.76887932,2.073509287e-07,4.039393368e-06,3.18311361e-07
24.3083,2.697142595,0.05221131346,-32.06278627,4.837725646,-0.2836232746,,98.76887934,1.771293102e-06,4.267958661e-06,3.287980721e-07
24.4167,2.697155915,0.05221198116,-32.06273322,4.837725783,-0.2836228381,,98.76887938,2.062620548e-06,4.529382978e-06,3.459508018e-07
24.5167,2.697143278,0.05221115363,-32.06276019,4.837725938,-0.2836223414,,98.76887942,2.480602688e-06,4.661452602e-06,3.544850719e-07
24.625,2.697144176,0.05221067393,-32.06276287,4.837726154,-0.2836218285,,98.76887945,3.096325031e-06,4.800224165e-06,3.634190827e-07
24.725,2.697143728,0.05220997351,-32.06278694,4.83772634,-0.2836213456,,98.76887949,1.68994915e-06,4.858987897e-06,3.755323604e-07
24.8167,2.697144014,0.05220977358,-32.06278715,4.837726525,-0.2836208561,,98.76887953,1.641586966e-06,4.927230238e-06,3.818000988e-07
24.9083,2.697144666,0.05220939957,-32.06278974,4.837726709,-0.2836204037,,98.76887957,2.034570929e-06,4.964537605e-06,3.822279137e-07
25.0083,2.69715681,0.05220991851,-32.06274272,4.837726889,-0.2836199481,,98.7688796,1.190852036e-06,5.056492689e-06,3.93937558e-07
25.125,2.697145594,0.05220960181,-32.0627504,4.837727056,-0.2836193632,,98.76887965,1.977755094e-06,5.022946641e-06,3.875833935e-07
25.2167,2.697145981,0.05220923506,-32.06275902,4.837727265,-0.2836189028,,98.76887968,2.706141276e-06,5.046789197e-06,3.847366142e-07
25.3083,2.697144991,0.05220886442,-32.06276008,4.837727427,-0.2836183976,,98.76887972,1.777657026e-06,5.051750476e-06,3.894454105e-07
25.425,2.697146463,0.05220879909,-32.06275867,4.837727623,-0.283617893,,98.76887976,2.79400443e-06,5.034456248e-06,3.843284935e-07
25.5167,2.697146246,0.05220755587,-32.06279136,4.837727841,-0.2836173858,,98.7688798,1.676575637e-06,5.067095045e-06,3.917956158e-07
25.6167,2.697146906,0.05220776069,-32.06276461,4.837728027,-0.2836168788,,98.76887984,2.603692897e-06,5.081569769e-06,3.880401209e-07
25.7083,2.697144527,0.05221080673,-32.06276115,4.837728335,-0.2836161035,,98.7688799,5.987805206e-06,1.258809613e-05,9.66889213e-07
25.8167,2.697149838,0.05220508403,-32.06276109,4.837729142,-0.2836147352,,98.76888,8.184012538e-06,1.194882972e-05,9.041296683e-07
25.925,2.697168373,0.05221823158,-32.06276483,4.83772983,-0.2836134904,,98.7688801,9.376838875e-07,1.490879968e-05,1.182961728e-06
26.025,2.697147102,0.05220079189,-32.06276985,4.837729416,-0.2836122125,,98.7688802,-7.144057382e-06,8.686547158e-06,7.289029236e-07
26.1083,2.69714732,0.05220414012,-32.06275793,4.837728922,-0.2836115699,,98.76888025,-4.68438299e-06,6.94674963e-06,5.756838745e-07
26.225,2.697148097,0.05220410138,-32.06275938,4.837728507,-0.2836108057,,98.76888032,-2.437596898e-06,6.234420075e-06,5.082431298e-07
26.3083,2.697148401,0.05220409247,-32.06275928,4.837728335,-0.2836102502,,98.76888036,-1.278301598e-06,5.919051489e-06,4.757775736e-07
26.4083,2.697148693,0.05220376521,-32.06275939,4.837728254,-0.2836097192,,98.7688804,-4.731837943e-07,5.701742674e-06,4.533502127e-07
26.5167,2.697150565,0.05221036646,-32.06275719,4.837728405,-0.2836094291,,98.76888043,1.654663744e-06,4.103700082e-06,3.150922644e-07
26.6083,2.697157882,0.05221676896,-32.06280498,4.837728602,-0.2836091715,,98.76888045,2.439049829e-06,2.647285687e-06,1.990936431e-07
26.7167,2.697156443,0.05221441599,-32.06279791,4.837728817,-0.2836088092,,98.76888047,1.936438446e-06,3.809170659e-06,2.941407592e-07
26.8167,2.697147877,0.05219330625,-32.06276349,4.837729038,-0.2836083986,,98.76888051,2.286508008e-06,2.461841878e-06,1.848138045e-07
26.9083,2.697146704,0.05219292772,-32.06275776,4.837729229,-0.2836080582,,98.76888053,2.178298747e-06,2.760454231e-06,2.096830776e-07
27.0167,2.697144923,0.05219073249,-32.06273174,4.837729447,-0.2836077151,,98.76888056,2.029532824e-06,3.906592265e-06,2.983559483e-07
27.1167,2.697158758,0.05221716814,-32.06280242,4.837729649,-0.2836074054,,98.76888058,1.942674147e-06,4.295094293e-06,3.328107543e-07
27.2167,2.697141235,0.05219332333,-32.06272919,4.837729909,-0.2836067115,,98.76888063,4.26501236e-06,1.230495886e-05,9.535672048e-07
27.325,2.697151166,0.05219596711,-32.06277601,4.837730551,-0.2836054795,,98.76888073,7.150223189e-06,9.426827608e-06,7.128959902e-07
27.4083,2.697156781,0.05221344961,-32.06278309,4.837731161,-0.2836045502,,98.7688808,6.0793686e-06,1.00315924e-05,7.670762724e-07
27.5167,2.697162895,0.0522015009,-32.06278343,4.837731728,-0.2836038292,,98.76888085,4.107253209e-06,4.836772603e-06,3.641896464e-07
27.6167,2.69715506,0.05219716855,-32.06277523,4.837731947,-0.2836038092,,98.76888085,-1.271351484e-07,-1.257881036e-06,-9.661925034e-08
27.725,2.697156923,0.05221747687,-32.06278079,4.837731871,-0.2836038297,,98.76888085,-1.254858872e-06,1.358599794e-06,1.174419297e-07
27.8167,2.697149939,0.05219734221,-32.06276132,4.83773179,-0.2836037368,,98.76888086,-5.311454239e-07,5.37155343e-07,4.754064599e-08
27.9167,2.697149401,0.05219941445,-32.06275736,4.837731764,-0.2836035965,,98.76888087,4.075094783e-07,8.339784826e-07,6.550907228e-08
28.025,2.697145691,0.05219224307,-32.0627222,4.837731775,-0.2836032997,,98.7688809,1.303960635e-07,3.934085818e-06,3.104089779e-07
28.1333,2.697156961,0.05221741233,-32.06278108,4.837731852,-0.2836030345,,98.76888092,4.139851673e-07,4.771383754e-06,3.795325142e-07
28.225,2.697150971,0.05220004797,-32.06276013,4.837731964,-0.2836027261,,98.76888094,1.669759864e-06,2.454121202e-06,1.871476605e-07
28.3083,2.697149518,0.05219499768,-32.06275049,4.837732083,-0.2836024214,,98.76888096,1.057751608e-06,4.405895363e-06,3.417107849e-07
28.4333,2.697151343,0.05219994698,-32.06275935,4.837732258,-0.2836020214,,98.76888099,1.792165409e-06,3.245412006e-06,2.494443616e-07
28.5083,2.697151667,0.05219993532,-32.06275917,4.837732411,-0.2836017379,,98.76888102,1.854511799e-06,3.560128368e-06,2.716936392e-07
28.6083,2.697151834,0.05219980073,-32.0627585,4.837732592,-0.2836013644,,98.76888104,1.742922733e-06,3.919512202e-06,3.012946237e-07
28.7167,2.697152116,0.05219932949,-32.06276002,4.837732774,-0.2836009203,,98.76888108,1.597204308e-06,4.301765008e-06,3.304416795e-07
28.8083,2.697157439,0.0521905315,-32.06276395,4.837732857,-0.2836006943,,98.7688811,-1.004997408e-06,-1.903801121e-06,-1.470187059e-07
28.9083,2.697149331,0.05221010866,-32.06276152,4.837732722,-0.2836007005,,98.7688811,-1.119179168e-06,2.048195881e-06,1.674445774e-07
29.0083,2.697153235,0.05219349157,-32.06275696,4.837732597,-0.2836005611,,98.76888111,-1.449882548e-06,2.139144798e-07,2.790478204e-08
29.125,2.69715153,0.05219555601,-32.06275692,4.837732415,-0.2836005442,,98.76888111,-1.433856681e-06,1.381418466e-06,1.209300913e-07
29.2167,2.697151294,0.05219970006,-32.06275802,4.837732243,-0.2836004795,,98.76888112,-1.807277396e-06,6.177223535e-07,5.98589401e-08
29.3167,2.697150879,0.05219996069,-32.0627584,4.83773208,-0.2836003722,,98.76888113,-1.347666536e-06,1.632330678e-06,1.366615815e-07
29.4083,2.697150912,0.05219938985,-32.06275952,4.837731981,-0.2836001835,,98.76888114,-7.613958913e-07,2.546647339e-06,2.055024252e-07
29.5167,2.697151081,0.05219899114,-32.06275984,4.837731928,-0.2835998414,,98.76888117,-1.244900976e-07,3.360020484e-06,2.649894306e-07
29.6167,2.697151029,0.05219860194,-32.06275941,4.837731935,-0.2835994855,,98.7688812,2.863636848e-07,3.830162296e-06,3.018072968e-07
29.7333,2.697151126,0.05219850718,-32.06275886,4.837731978,-0.2835990872,,98.76888123,5.843153985e-07,4.164787488e-06,3.266257516e-07
29.825,2.697151323,0.05219786963,-32.06275944,4.837732039,-0.2835986917,,98.76888126,7.732885914e-07,4.44818838e-06,3.483187696e-07
29.9167,2.697151464,0.05219759909,-32.06275961,4.837732124,-0.2835982392,,98.76888129,9.036345699e-07,4.591827339e-06,3.59159013e-07
30.0167,2.697151482,0.05219732379,-32.0627592,4.837732228,-0.2835977368,,98.76888133,1.015451042e-06,4.722178278e-06,3.68833474e-07
30.125,2.697151547,0.05219728328,-32.06275902,4.837732331,-0.2835972618,,98.76888137,1.063360647e-06,4.804460637e-06,3.718827155e-07
30.225,2.697151646,0.05219701564,-32.06275972,4.83773244,-0.2835967786,,98.76888141,1.114793949e-06,4.857815091e-06,3.794132723e-07
30.3083,2.697151729,0.05219662955,-32.06275927,4.837732534,-0.283596371,,98.76888144,1.138441113e-06,4.916513665e-06,3.826198459e-07
30.4167,2.697149018,0.05219847286,-32.06276069,4.837732816,-0.283595419,,98.76888151,4.877287649e-06,1.268909231e-05,9.80508278e-07
30.5167,2.697152147,0.05219389989,-32.06276025,4.837733325,-0.2835942638,,98.7688816,5.911540384e-06,1.203158081e-05,9.216847682e-07
30.6083,2.69715331,0.05219310586,-32.06276047,4.837733853,-0.283593232,,98.76888168,5.435060259e-06,1.037750577e-05,7.942634363e-07
30.725,2.697156442,0.05219004083,-32.06275722,4.837734308,-0.2835924304,,98.76888174,8.255014769e-07,1.172884166e-06,9.17343599e-08
30.8167,2.69715373,0.05219485119,-32.06275873,4.837734276,-0.2835923779,,98.76888175,-1.242392963e-06,5.897401801e-07,5.151082108e-08
30.9167,2.697152538,0.05219511044,-32.0627595,4.837734132,-0.2835922724,,98.76888176,-1.473785805e-06,1.666938273e-06,1.395014029e-07
31.0083,2.697152093,0.05219484385,-32.06275966,4.837734012,-0.2835920842,,98.76888177,-1.059754359e-06,2.526336025e-06,2.057181118e-07
31.125,2.697152041,0.05219444232,-32.06275904,4.837733924,-0.2835917457,,98.7688818,-4.030557787e-07,3.333576496e-06,2.644392579e-07
31.2167,2.697152098,0.05219406673,-32.06275954,4.837733905,-0.2835914232,,98.76888183,3.00569848e-08,3.776728543e-06,2.990825602e-07
31.3083,2.697152266,0.05219384869,-32.06275943,4.837733923,-0.2835910629,,98.76888185,3.640061595e-07,4.12576672e-06,3.234077554e-07
31.4167,2.697152375,0.05219361886,-32.06275922,4.837733978,-0.2835906045,,98.76888189,6.496018129e-07,4.359202429e-06,3.414891916e-07
31.5167,2.69715245,0.05219321736,-32.0627593,4.837734058,-0.2835901201,,98.76888193,8.444632223e-07,4.605619686e-06,3.590013945e-07
31.6083,2.69715248,0.05219301163,-32.06275855,4.837734132,-0.283589734,,98.76888196,9.375110315e-07,4.6798735e-06,3.657502445e-07
31.7167,2.697152531,0.05219268899,-32.06275858,4.837734238,-0.2835892203,,98.768882,1.022602183e-06,4.787943245e-06,3.707369605e-07
31.8083,2.697152749,0.0521922292,-32.06275967,4.837734335,-0.2835887777,,98.76888203,1.078832537e-06,4.87401612e-06,3.805875245e-07
31.9167,2.697152857,0.05221931377,-32.06275972,4.837734463,-0.2835881742,,98.76888208,1.121355987e-06,1.288493298e-05,1.017177453e-06
32.0167,2.697152862,0.05219010382,-32.06275939,4.837734575,-0.2835863125,,98.76888223,1.128635663e-06,2.051490964e-05,1.623833777e-06
32.125,2.697152884,0.05218676971,-32.06275846,4.837734689,-0.2835843975,,98.76888238,1.1336804e-06,1.722376817e-05,1.363300702e-06
32.2083,2.697153069,0.05218618791,-32.06275988,4.837734794,-0.28358295,,98.76888249,1.157450976e-06,1.41909995e-05,1.119719875e-06
32.325,2.697154441,0.05218670467,-32.06275841,4.837734639,-0.283582195,,98.76888255,-3.208657296e-06,3.653308308e-06,3.073924348e-07
32.4167,2.69715243,0.05218857462,-32.06275883,4.837734322,-0.2835818843,,98.76888258,-3.463632833e-06,3.398467387e-06,2.86730274e-07
32.525,2.697160238,0.05219685109,-32.06275607,4.837734441,-0.2835819312,,98.76888258,2.03779604e-06,2.382143863e-06,1.800363697e-07
32.6167,2.697161194,0.05219963713,-32.06280295,4.83773449,-0.2835816742,,98.7688826,-8.002540995e-08,1.960622749e-06,1.583795011e-07
32.7167,2.69714733,0.05220050665,-32.06280558,4.837734595,-0.2835814542,,98.76888261,3.837239557e-06,1.459090862e-06,9.737665295e-08
32.825,2.697161016,0.05219919435,-32.0627975,4.837734784,-0.28358116,,98.76888263,3.822714524e-07,3.496893074e-06,2.778631962e-07
32.9083,2.697150173,0.0521751089,-32.06274178,4.837734987,-0.283580893,,98.76888265,2.83432815e-06,2.968374125e-06,2.191710994e-07
33.025,2.697149194,0.05217416952,-32.06271348,4.837735167,-0.2835804673,,98.76888269,2.431556614e-06,3.880954846e-06,2.9401636e-07
33.1083,2.697153548,0.05217832777,-32.06275993,4.837735458,-0.2835801376,,98.76888271,2.043457956e-06,2.68779375e-06,2.042742611e-07
33.225,2.697150973,0.05217549341,-32.06274276,4.837735677,-0.2835797728,,98.76888274,2.285495789e-06,3.97905246e-06,3.025846869e-07
33.3167,2.697151063,0.05220056725,-32.06280994,4.837735853,-0.2835794242,,98.76888277,3.182402741e-06,4.096744507e-06,3.095703061e-07
33.4083,2.697151799,0.0521758294,-32.06273884,4.83773615,-0.283579096,,98.76888279,2.428178588e-06,4.446524922e-06,3.389062682e-07
33.5083,2.697145213,0.05218622425,-32.06277343,4.837736436,-0.2835783591,,98.76888285,8.716727073e-06,9.942764581e-06,7.443258885e-07
33.6083,2.697155098,0.05217547686,-32.06273191,4.837737303,-0.2835773354,,98.76888292,6.934005238e-06,1.182639548e-05,9.013126422e-07
33.7167,2.697158916,0.05218045097,-32.06273839,4.837737937,-0.2835761611,,98.76888301,6.615804819e-06,7.85642454e-06,5.915327524e-07
33.8083,2.697163329,0.05217112056,-32.06275826,4.83773857,-0.2835755501,,98.76888306,3.083520153e-06,9.446388248e-07,6.013511676e-08
33.9083,2.697153759,0.05217609847,-32.06273333,4.837738507,-0.2835755659,,98.76888306,-3.712201958e-06,9.980794758e-07,9.862938006e-08
34.0083,2.697159038,0.05218551468,-32.06276207,4.837738406,-0.2835756596,,98.76888305,1.403888841e-06,-1.131788089e-06,-9.952887238e-08
34.1083,2.697152264,0.05217578191,-32.06269324,4.83773839,-0.2835754611,,98.76888307,-5.98724736e-07,3.168686779e-06,2.535029991e-07
34.2083,2.697159111,0.05218523675,-32.06275864,4.837738511,-0.2835753372,,98.76888308,9.576546547e-07,8.279425573e-07,5.981163342e-08
34.3083,2.697168443,0.05220168308,-32.06277683,4.83773871,-0.283575127,,98.76888309,-1.745548247e-07,5.212585708e-06,4.168840382e-07
34.4083,2.697161442,0.05218512749,-32.06272894,4.837738882,-0.2835748057,,98.76888312,3.466420934e-06,2.393940216e-06,1.735649151e-07
34.5083,2.697158959,0.05218305319,-32.06273854,4.837739042,-0.2835744262,,98.76888315,1.568968794e-06,3.303598834e-06,2.541361649e-07
34.6083,2.697040297,0.05211111583,-32.06275529,4.837744395,-0.2835846148,,98.76888231,0.0001473236729,-0.0002497180199,-2.067526052e-05
34.7083,2.697164402,0.05227710377,-32.0627787,4.83776188,-0.283609478,,98.76888023,0.0001857055481,-0.0002212891658,-1.863095293e-05
34.8083,2.697226373,0.05227309043,-32.06280743,4.837781103,-0.2836307908,,98.76887843,0.0001594411799,-0.000170065375,-1.440634179e-05
34.9083,2.697224119,0.05225618114,-32.06276722,4.837795475,-0.2836450587,,98.76887722,0.000124303275,-0.0001178757588,-1.006103588e-05
35.0083,2.697213344,0.05224554542,-32.0627861,4.837805738,-0.283654737,,98.76887639,8.097750281e-05,-8.266120431e-05,-7.019363155e-06
35.125,2.697218027,0.05223931519,-32.06273749,4.837813151,-0.2836620675,,98.76887577,5.185247838e-05,-5.617694525e-05,-4.756024564e-06
35.2083,2.697214796,0.05225565036,-32.06275509,4.837817257,-0.283666043,,98.76887543,3.55532699e-05,-2.899281147e-05,-2.504806507e-06
35.3167,2.697206616,0.05224452433,-32.06275558,4.837820591,-0.2836682859,,98.76887523,3.0642332e-05,-1.661929212e-05,-1.492851841e-06
35.4167,2.69720887,0.05224223317,-32.06275473,4.837823541,-0.2836697148,,98.7688751,2.317633128e-05,-9.747530778e-06,-9.046157931e-07
35.5167,2.697213416,0.05224110493,-32.06275614,4.837825186,-0.2836704862,,98.76887503,8.963176467e-06,-5.545855325e-06,-4.919698699e-07
35.6167,2.697206042,0.0522403791,-32.06275769,4.837825991,-0.2836714614,,98.76887495,6.98654616e-06,-1.037738538e-05,-8.649991787e-07
35.7167,2.6972035,0.05225045365,-32.0627302,4.837826593,-0.2836723956,,98.76887487,4.212322709e-06,-9.676357357e-06,-7.918722406e-07
35.8167,2.697213582,0.05222417285,-32.0627922,4.837826953,-0.2836731123,,98.76887481,2.502436805e-06,-6.239612611e-06,-5.117656905e-07
35.925,2.697213716,0.05224163492,-32.06278338,4.837826922,-0.2836730911,,98.76887481,-2.886465193e-06,-1.992069897e-06,-1.396746734e-07
36.0167,2.697199717,0.0522371254,-32.06273024,4.837826966,-0.2836731039,,98.76887481,3.30212237e-06,1.505981767e-06,9.966940331e-08
36.125,2.697200305,0.05226894408,-32.06272936,4.837827026,-0.2836731146,,98.76887481,-1.581495075e-06,2.295814232e-06,1.93796632e-07
36.2083,2.697200439,0.05227325676,-32.06269239,4.837826945,-0.2836731929,,98.7688748,1.092420013e-06,1.345785969e-06,1.040091712e-07
36.325,2.697216262,0.0522521122,-32.06279606,4.83782703,-0.2836729236,,98.76887482,-1.759802363e-06,5.739483915e-07,5.723528156e-08
36.4167,2.697210688,0.052251687,-32.06274041,4.837827063,-0.2836729676,,98.76887482,1.460081076e-07,1.328451379e-06,1.02660524e-07
36.5083,2.697205967,0.05223481647,-32.0627326,4.837827055,-0.2836728351,,98.76887483,1.823941639e-06,-5.43653679e-07,-5.629824379e-08
36.6083,2.69720317,0.05222942115,-32.06268966,4.837827207,-0.283672634,,98.76887485,1.125151631e-06,2.366211994e-06,1.802585988e-07
36.7167,2.697203195,0.05225294688,-32.06279248,4.837827386,-0.283672377,,98.76887487,1.822490882e-06,3.446788953e-06,2.668718573e-07
36.8083,2.697210674,0.05223574918,-32.06274755,4.837827518,-0.2836721046,,98.76887489,2.126476993e-06,2.125676071e-06,1.598498763e-07
36.925,2.697203696,0.05225335225,-32.06279611,4.837827753,-0.2836717406,,98.76887491,1.341934939e-06,4.443788118e-06,3.48966419e-07
37.0167,2.697212327,0.05223795016,-32.06272694,4.837828003,-0.2836714574,,98.76887494,4.836385823e-06,1.737047075e-06,1.127534502e-07
37.1083,2.69719583,0.0522337885,-32.06274871,4.837828152,-0.2836710648,,98.76887497,1.901426516e-06,3.052247638e-06,2.327824744e-07
37.2083,2.697207916,0.05223087237,-32.06274047,4.837828471,-0.2836707846,,98.76887499,9.484896411e-07,5.12189589e-06,4.009464968e-07
37.325,2.697199974,0.05223687395,-32.06275728,4.837828658,-0.2836702834,,98.76887503,5.436582743e-06,2.703645433e-06,1.837683026e-07
37.4167,2.697220726,0.05225875463,-32.06279548,4.837828956,-0.2836700349,,98.76887504,1.122267429e-06,4.767363634e-06,3.744986264e-07
37.5083,2.6971982,0.05223993788,-32.06275535,4.837829259,-0.2836693093,,98.7688751,8.376118253e-06,1.098296907e-05,8.244222803e-07
37.625,2.697211485,0.05222871875,-32.06270125,4.837830259,-0.2836679805,,98.7688752,5.127915182e-06,1.327044482e-05,1.026208559e-06
37.7083,2.697213683,0.05223382758,-32.06275978,4.837830774,-0.2836670075,,98.76887527,5.457832858e-06,9.010553241e-06,6.850149727e-07
37.8083,2.697217591,0.05222901242,-32.06275465,4.837831222,-0.2836664379,,98.76887532,5.828874163e-07,8.151104013e-07,6.351572695e-08
37.925,2.69720091,0.05223682146,-32.06275376,4.837830985,-0.2836664682,,98.76887532,2.655601812e-07,-1.711051954e-07,-1.670621401e-08
38.0083,2.697200722,0.05223691491,-32.06276299,4.837830981,-0.2836664419,,98.76887532,3.655873529e-07,8.692554405e-07,6.584812949e-08
38.125,2.697214314,0.052237056,-32.06273212,4.837831093,-0.2836662612,,98.76887533,2.324023597e-07,2.222269944e-06,1.750902874e-07
38.2083,2.697202081,0.05223578602,-32.06278086,4.837831162,-0.283666051,,98.76887535,8.928238204e-07,2.863086878e-06,2.216852179e-07
38.3167,2.697214759,0.05223585134,-32.06273718,4.837831301,-0.2836656732,,98.76887538,7.821066965e-07,3.646509064e-06,2.83831887e-07
38.4083,2.697202495,0.05223500674,-32.06278114,4.837831402,-0.2836653598,,98.7688754,1.093329522e-06,3.916796738e-06,3.044068365e-07
38.5083,2.697216659,0.05223553015,-32.06272836,4.837831577,-0.2836649496,,98.76887543,1.95990966e-06,4.36036694e-06,3.347683251e-07
38.6083,2.697204548,0.05223443615,-32.0627726,4.837831761,-0.283664473,,98.76887547,1.30418467e-06,4.517806699e-06,3.49962936e-07
38.7167,2.697203695,0.05223427474,-32.06277275,4.837831898,-0.283664015,,98.76887551,7.085916637e-07,4.641609905e-06,3.638885866e-07
38.8167,2.697204554,0.05223424509,-32.0627544,4.837832073,-0.2836635433,,98.76887554,2.341000564e-06,4.788623135e-06,3.660708934e-07
38.9083,2.697204967,0.05223402182,-32.06275739,4.837832273,-0.2836631009,,98.76887558,2.574762189e-06,4.843164208e-06,3.692749238e-07
39.0083,2.697201373,0.05224685727,-32.06276021,4.837832452,-0.2836625555,,98.76887562,2.521240312e-06,8.931338663e-06,6.939342311e-07
39.1083,2.697206033,0.052232343,-32.06275631,4.837833019,-0.2836613812,,98.76887571,7.915096197e-06,1.271291178e-05,9.654099138e-07
39.2167,2.697208122,0.05223023962,-32.06277274,4.837833809,-0.2836601791,,98.7688758,5.781997121e-06,1.108933426e-05,8.485112946e-07
39.3167,2.697222538,0.05221739124,-32.06272555,4.83783433,-0.283659087,,98.76887588,2.526530465e-06,5.381434821e-06,4.165304668e-07
39.4167,2.697205921,0.05223123262,-32.06275356,4.837834186,-0.2836588946,,98.7688759,-1.285948492e-06,3.693557779e-07,3.75469302e-08
39.525,2.697207498,0.05223256717,-32.06275349,4.837834152,-0.2836588279,,98.7688759,4.754784211e-07,1.171468668e-06,8.951133202e-08
39.6083,2.697206579,0.05223222884,-32.06275423,4.83783412,-0.2836586781,,98.76887592,-1.800891677e-08,2.160405876e-06,1.692348504e-07
39.725,2.697208039,0.05223183216,-32.06275486,4.8378342,-0.2836584012,,98.76887594,1.332935147e-06,3.032482171e-06,2.327965292e-07
39.8083,2.697206951,0.05223143813,-32.0627558,4.837834222,-0.2836581005,,98.76887597,6.574799341e-07,3.575197676e-06,2.796022322e-07
39.9167,2.697208198,0.0522313558,-32.06275417,4.837834343,-0.2836577249,,98.768876,1.648110934e-06,3.972171227e-06,3.053111129e-07
40.025,2.697219395,0.05223106157,-32.06273873,4.837834504,-0.2836572769,,98.76887603,-4.455093375e-07,4.353630685e-06,3.469306189e-07
40.1083,2.697207752,0.05223077538,-32.06275332,4.837834545,-0.283656911,,98.76887606,1.246659817e-06,4.460243531e-06,3.473556885e-07
40.2083,2.697208843,0.05223023865,-32.06275489,4.837834715,-0.2836564175,,98.7688761,1.783651596e-06,4.672078896e-06,3.591419165e-07
40.3167,2.697207819,0.05222984212,-32.06275907,4.837834851,-0.2836559461,,98.76887613,1.088476452e-06,4.776634591e-06,3.721730675e-07
40.425,2.697208829,0.05222974379,-32.06275378,4.837835006,-0.2836554247,,98.76887617,1.635975375e-06,4.853345993e-06,3.74977971e-07
40.5083,2.697209257,0.05222924413,-32.06275462,4.837835159,-0.2836549768,,98.76887621,1.670257248e-06,4.928779477e-06,3.81636043e-07
40.6083,2.697205661,0.05224231976,-32.06276005,4.837835328,-0.2836544658,,98.76887625,2.789712812e-06,9.017927716e-06,6.994878037e-07
40.7083,2.697208208,0.05222831496,-32.06275642,4.837835744,-0.2836533903,,98.76887633,5.860051365e-06,1.282618575e-05,9.865268193e-07
40.8167,2.697210449,0.05222621495,-32.06275489,4.837836402,-0.2836520787,,98.76887643,5.934697062e-06,1.108784395e-05,8.480797203e-07
40.9167,2.697224665,0.05223297201,-32.06278815,4.837836992,-0.2836509865,,98.76887652,3.10581328e-06,7.228247079e-06,5.602216567e-07
41.025,2.697212243,0.05222621215,-32.06275118,4.83783679,-0.283650165,,98.76887658,-6.805190442e-06,8.181909731e-06,6.873097879e-07
41.1083,2.697208004,0.0522254678,-32.06275311,4.837836102,-0.2836494431,,98.76887664,-6.761269389e-06,7.507963756e-06,6.317137322e-07
41.2083,2.697207625,0.05222517046,-32.06275373,4.837835554,-0.283648783,,98.7688767,-5.006982084e-06,6.905556912e-06,5.756685197e-07
41.3083,2.697207785,0.0522249966,-32.06275442,4.837835109,-0.2836480671,,98.76887676,-3.139836679e-06,6.351110312e-06,5.213608833e-07
41.4167,2.69720799,0.05222473174,-32.06275441,4.837834844,-0.2836474025,,98.76887681,-1.735127466e-06,5.966532601e-06,4.829949141e-07
41.525,2.697208229,0.05222464086,-32.06275437,4.837834715,-0.2836468207,,98.76887686,-8.144689557e-07,5.683818926e-06,4.546687956e-07
41.6167,2.697208329,0.05222443042,-32.0627538,4.837834667,-0.2836463058,,98.7688769,-2.117977268e-07,5.524106292e-06,4.390113781e-07
41.7083,2.697208608,0.0522239993,-32.06275459,4.837834666,-0.2836458052,,98.76887694,2.111315676e-07,5.409083953e-06,4.280013537e-07
41.8167,2.69720864,0.052223889,-32.06275381,4.837834707,-0.2836452264,,98.76887699,5.428071823e-07,5.288810804e-06,4.124504797e-07
41.9167,2.697208782,0.05222341843,-32.06275411,4.837834778,-0.283644657,,98.76887703,7.620973926e-07,5.233523331e-06,4.110016887e-07
42.0083,2.697208965,0.05222325887,-32.06275467,4.837834846,-0.2836442242,,98.76887706,8.696578991e-07,5.219530748e-06,4.091994577e-07
42.1167,2.697208995,0.05222300899,-32.06275442,4.837834945,-0.2836436643,,98.76887711,9.633362826e-07,5.139784244e-06,4.011485928e-07
42.225,2.697206184,0.05222494492,-32.06275511,4.8378352,-0.2836427332,,98.76887718,4.738037477e-06,1.280172681e-05,9.908353298e-07
42.3167,2.697209493,0.05222021469,-32.06275631,4.837835697,-0.2836415664,,98.76887727,5.808267308e-06,1.214379316e-05,9.326793992e-07
42.425,2.697210645,0.05221983224,-32.06275414,4.837836304,-0.2836403529,,98.76887736,5.18748475e-06,1.015900267e-05,7.785398753e-07
42.5167,2.697211077,0.05221943158,-32.06275559,4.837836743,-0.2836394792,,98.76887743,4.313349711e-06,8.869706303e-06,6.789065209e-07
42.625,2.697211065,0.05221923052,-32.06275491,4.83783716,-0.2836385818,,98.7688775,3.349353479e-06,7.72100507e-06,5.945238262e-07
42.7083,2.697211031,0.05221936091,-32.0627549,4.837837416,-0.2836379645,,98.76887755,2.766093153e-06,7.040315968e-06,5.444326047e-07
42.8083,2.697210999,0.05221884424,-32.06275437,4.837837686,-0.283637232,,98.7688776,2.20641739e-06,6.477089071e-06,5.018099933e-07
42.9083,2.697210995,0.05221868084,-32.06275465,4.837837889,-0.2836366063,,98.76887765,1.858366018e-06,6.091989954e-06,4.731844437e-07
43.025,2.697207572,0.05222395273,-32.06275753,4.837838144,-0.2836357726,,98.76887772,4.495438795e-06,1.272551693e-05,9.849121437e-07
43.1083,2.69721055,0.05221670463,-32.06275607,4.837838596,-0.2836346666,,98.7688778,6.09047047e-06,1.313623705e-05,1.00954827e-06
43.2083,2.697212342,0.05221548487,-32.0627558,4.837839251,-0.2836333464,,98.7688779,5.726459021e-06,1.107763148e-05,8.466892741e-07
43.325,2.697216298,0.05220965525,-32.06275289,4.83783975,-0.2836324352,,98.76887797,1.725731388e-06,2.368830083e-06,1.808070045e-07
43.4083,2.697213178,0.05221682584,-32.06275389,4.837839772,-0.2836323273,,98.76887798,-9.408099176e-07,8.161497967e-07,6.822744022e-08
43.525,2.697211528,0.05221756137,-32.0627534,4.837839631,-0.2836321976,,98.76887799,-1.42474822e-06,1.747334411e-06,1.451339209e-07
43.6083,2.697211231,0.05221710037,-32.0627548,4.837839513,-0.2836320011,,98.76887801,-1.073339298e-06,2.59870097e-06,2.113803797e-07
43.7083,2.697211165,0.05221679911,-32.06275472,4.83783943,-0.2836317103,,98.76887803,-5.505533167e-07,3.290377408e-06,2.635242175e-07
43.8083,2.697212241,0.0522190337,-32.0627553,4.837839452,-0.2836314816,,98.76887805,4.307710009e-07,3.327218427e-06,2.597623227e-07
43.9167,2.697213057,0.05221962286,-32.06275786,4.837839529,-0.2836311916,,98.76887807,9.640233842e-07,3.634995612e-06,2.833514032e-07
44.025,2.697202909,0.05219720746,-32.0627156,4.837839663,-0.2836308338,,98.7688781,1.433518308e-06,2.910784186e-06,2.221303003e-07
44.1083,2.697209169,0.05220351618,-32.06276067,4.837839782,-0.28363055,,98.76887812,2.031918838e-06,1.292700061e-06,9.352367099e-08
44.2083,2.697210538,0.05221992438,-32.06273897,4.837839968,-0.283630213,,98.76887815,1.603898393e-06,4.167486764e-06,3.201608816e-07
44.3167,2.697206366,0.05220104062,-32.06273001,4.83784013,-0.2836298274,,98.76887818,2.001379271e-06,2.845620116e-06,2.125545714e-07
44.4167,2.697206686,0.05220113418,-32.06273058,4.837840307,-0.2836294584,,98.76887821,1.969499527e-06,3.151947057e-06,2.371233806e-07
44.5083,2.697213964,0.05223900428,-32.0627915,4.837840474,-0.2836290975,,98.76887823,3.192175452e-06,7.177520984e-06,5.56482786e-07
44.6083,2.697214998,0.05222442553,-32.0627787,4.837840972,-0.2836278495,,98.76887833,6.429240629e-06,1.073405739e-05,8.211574066e-07
44.7083,2.697211645,0.05220335725,-32.06275997,4.837841634,-0.283626813,,98.76887841,6.843364479e-06,8.081346637e-06,6.063550928e-07
44.8167,2.697207436,0.05219731842,-32.06271846,4.837842252,-0.2836259411,,98.76887847,5.319941425e-06,8.846711595e-06,6.729005655e-07
44.925,2.697224411,0.05222601169,-32.06279673,4.83784257,-0.2836258633,,98.76887848,8.680930764e-08,-2.536674793e-07,-1.878202937e-08
45.025,2.697205337,0.05220111943,-32.06271086,4.837842485,-0.2836258331,,98.76887848,-1.026094773e-06,-4.627081149e-08,2.244385074e-11
45.1167,2.697214755,0.05222226373,-32.06275072,4.837842388,-0.2836257805,,98.76887849,-1.397466774e-06,2.883297011e-06,2.356604111e-07
45.2083,2.697214933,0.05222226405,-32.06275177,4.837842318,-0.2836256307,,98.7688785,-9.305481324e-07,3.742966968e-06,3.014948717e-07
45.3083,2.697206381,0.05220297074,-32.06271723,4.837842313,-0.2836254092,,98.76887852,4.153344955e-07,2.394659925e-06,1.864128087e-07
45.4167,2.697213907,0.05220902565,-32.06276915,4.837842388,-0.2836251459,,98.76887854,1.158005298e-06,1.843528618e-06,1.426838593e-07
45.5083,2.697206126,0.05220252918,-32.06271148,4.837842497,-0.2836249452,,98.76887855,1.076143975e-06,3.844564719e-06,2.978868968e-07
45.6083,2.697219276,0.05222758765,-32.06277865,4.837842638,-0.2836245903,,98.76887858,1.01809726e-06,4.56892336e-06,3.604585836e-07
45.7083,2.6972129,0.05220985898,-32.06275745,4.837842766,-0.2836242185,,98.76887861,1.93930176e-06,2.207452344e-06,1.666718179e-07
45.8083,2.697216414,0.05222457386,-32.06274889,4.837842935,-0.2836238821,,98.76887863,9.54943706e-07,6.268662522e-06,4.913780669e-07
45.925,2.697222961,0.05223211433,-32.06279377,4.837843127,-0.2836235164,,98.76887866,1.730735869e-06,4.328739525e-06,3.362664794e-07
46.0167,2.697213216,0.05221072098,-32.0627545,4.837843283,-0.2836231494,,98.76887869,2.127899352e-06,2.944930094e-06,2.208033817e-07
46.1083,2.697222177,0.05218603122,-32.06279063,4.837843444,-0.2836227709,,98.76887872,1.021011262e-06,1.957188134e-06,1.483797359e-07
46.225,2.697231446,0.05219989125,-32.06275478,4.837843437,-0.2836228448,,98.76887871,-1.657341213e-06,-3.935759299e-07,-2.342128094e-08
46.3083,2.697226834,0.0521953277,-32.06279715,4.837842999,-0.2836227995,,98.76887872,-9.543946192e-06,1.908438359e-06,2.029017425e-07
46.4083,2.6972204,0.05219752349,-32.06281056,4.837841828,-0.2836228302,,98.76887872,-1.011719501e-05,1.565118169e-06,1.774279407e-07
46.5167,2.697201201,0.05223370167,-32.06271443,4.837840784,-0.2836228152,,98.76887873,-8.41465529e-06,1.450757111e-06,1.633963819e-07
46.625,2.697210476,0.05221154062,-32.06275447,4.837840043,-0.2836226946,,98.76887874,-6.64965231e-06,5.555020132e-07,7.940442479e-08
46.725,2.697209893,0.05221232073,-32.06275399,4.83783946,-0.2836226014,,98.76887876,-4.847017142e-06,1.452700663e-06,1.41475779e-07
46.8083,2.697214429,0.05221271701,-32.06272472,4.837839257,-0.2836224482,,98.76887877,1.305672241e-06,2.317243035e-06,1.770718185e-07
46.9083,2.697202236,0.05221113758,-32.06278335,4.837839331,-0.2836221807,,98.76887879,1.993581067e-06,3.00780433e-06,2.251982131e-07
47.0083,2.697203646,0.05221072996,-32.06277591,4.837839483,-0.2836218465,,98.76887881,2.045925696e-06,3.616607855e-06,2.752592086e-07
47.1167,2.697202942,0.05221031829,-32.06278136,4.837839656,-0.2836213975,,98.76887885,1.070365092e-06,4.055271419e-06,3.139490919e-07
47.225,2.69720428,0.05221068105,-32.06275059,4.837839805,-0.2836209788,,98.76887888,2.456857258e-06,4.315517024e-06,3.29636388e-07
47.3083,2.697215473,0.05221036658,-32.06275301,4.837839951,-0.283620611,,98.76887891,-1.780955596e-07,4.49997231e-06,3.578703996e-07
47.4167,2.697216923,0.05221006884,-32.06275184,4.837840169,-0.2836201156,,98.76887895,6.489251528e-07,4.669515893e-06,3.667764944e-07
47.5167,2.697205515,0.05220964936,-32.06276942,4.837840347,-0.283619645,,98.76887898,2.143463079e-06,4.697133599e-06,3.646681514e-07
47.6167,2.69720608,0.05220870636,-32.06277752,4.837840556,-0.2836191266,,98.76887902,2.459719502e-06,4.836942057e-06,3.693001315e-07
47.7167,2.697207478,0.05223105926,-32.0627168,4.837840709,-0.2836186408,,98.76887906,1.639624202e-06,6.953667708e-06,5.456844944e-07
47.825,2.697220154,0.05220799864,-32.06275911,4.837841403,-0.2836175162,,98.76887915,7.964455844e-06,1.279834256e-05,9.712188049e-07
47.925,2.697206078,0.05220556943,-32.06278375,4.837842015,-0.2836163026,,98.76887924,5.75205014e-06,1.115781293e-05,8.547342627e-07
48.025,2.697218905,0.05220561602,-32.06276454,4.837842572,-0.2836152627,,98.76887932,3.732394857e-06,9.540013304e-06,7.370684521e-07
48.125,2.697218164,0.05220582297,-32.06275224,4.837842612,-0.2836149395,,98.76887935,-3.958971193e-06,4.166713661e-07,5.61492928e-08
48.2083,2.697218709,0.05220781113,-32.06275429,4.837842435,-0.283614902,,98.76887935,-1.676782898e-06,8.03621934e-07,7.013777523e-08
48.3083,2.697208238,0.0522079046,-32.06275258,4.837842399,-0.2836147753,,98.76887936,8.60053737e-07,1.822170908e-06,1.392665484e-07
48.4083,2.697207571,0.05220708182,-32.06277958,4.837842448,-0.2836145481,,98.76887938,8.264698658e-07,2.694025248e-06,2.085975869e-07
48.5083,2.697220095,0.05220717069,-32.06273724,4.837842508,-0.2836142165,,98.7688794,6.789481246e-07,3.467418452e-06,2.704345051e-07
48.625,2.697220676,0.05220691639,-32.06273047,4.83784262,-0.2836138206,,98.76887943,1.161928717e-06,3.9561451e-06,3.066418229e-07
48.7167,2.697208731,0.05220621078,-32.06275671,4.837842719,-0.2836134138,,98.76887947,2.483243078e-06,4.222251701e-06,3.191505579e-07
48.8083,2.697210427,0.05220655603,-32.0627425,4.837842912,-0.2836130551,,98.76887949,2.535118817e-06,4.383172019e-06,3.371179345e-07
48.9083,2.697221968,0.05220634445,-32.06272463,4.837843049,-0.2836126069,,98.76887953,1.662497152e-06,4.602062914e-06,3.556922822e-07
49.0083,2.697210914,0.05220540122,-32.06275477,4.837843215,-0.2836121053,,98.76887957,3.596614023e-06,4.719680266e-06,3.544584652e-07
49.1167,2.697210702,0.05220520751,-32.06275492,4.837843398,-0.2836116304,,98.7688796,3.172876227e-06,4.775433036e-06,3.60077335e-07
49.2167,2.69721037,0.05220478864,-32.06275579,4.837843518,-0.2836111888,,98.76887964,2.821418972e-06,4.875399361e-06,3.708951028e-07
49.3083,2.697201383,0.05221826591,-32.06275296,4.837843733,-0.283610606,,98.76887968,2.64197054e-06,9.818658835e-06,7.694448216e-07
49.425,2.69721249,0.05220278649,-32.06275435,4.837844417,-0.2836092955,,98.76887978,8.665010459e-06,1.246737028e-05,9.42757059e-07
49.5167,2.697212548,0.05220158452,-32.06275301,4.837845167,-0.2836081227,,98.76887987,5.356588352e-06,1.07506332e-05,8.253320266e-07
49.6167,2.697223664,0.05220136658,-32.06273862,4.837845606,-0.2836072014,,98.76887994,3.406476242e-06,9.362480377e-06,7.238504535e-07
49.7167,2.697213231,0.0522010875,-32.06275598,4.837846342,-0.2836057621,,98.76888005,1.005385009e-05,1.593627489e-05,1.210265888e-06
49.8167,2.697213491,0.05219869372,-32.06275273,4.837846823,-0.2836037021,,98.76888021,2.564899153e-06,2.143540198e-05,1.68962661e-06
49.9083,2.697226494,0.05219150556,-32.0627516,4.83784681,-0.2836021223,,98.76888034,-5.791064151e-06,1.076468533e-05,8.894320362e-07
50.025,2.697213043,0.05219800731,-32.06275391,4.837846347,-0.2836011312,,98.76888042,-1.714629385e-06,7.146644137e-06,5.756570104e-07
50.1167,2.697214295,0.05219825141,-32.06275406,4.837846265,-0.2836005108,,98.76888047,-1.413263529e-07,6.455676063e-06,5.131065214e-07
50.225,2.697203881,0.05217742874,-32.06271552,4.837846161,-0.283599839,,98.76888053,6.229861179e-07,4.112875463e-06,3.222056117e-07
50.3167,2.697217434,0.05220459201,-32.06275671,4.837846384,-0.283599669,,98.76888054,2.472436499e-06,4.535075627e-06,3.456665864e-07
50.425,2.697212186,0.05220243312,-32.06274348,4.837846502,-0.2835992483,,98.76888057,1.076832657e-06,4.778164429e-06,3.714995433e-07
50.5167,2.697220023,0.05220924956,-32.06278022,4.837846737,-0.2835989981,,98.76888059,3.054299044e-06,3.180283072e-06,2.372664182e-07
50.625,2.697213582,0.05218748506,-32.06277831,4.837847044,-0.2835986052,,98.76888062,8.413997779e-07,2.822173586e-06,2.217859958e-07
50.7167,2.697206914,0.05218384623,-32.06271211,4.837847197,-0.2835982467,,98.76888065,2.500217636e-06,3.503718922e-06,2.63047486e-07
50.8167,2.697219446,0.05220783283,-32.0627418,4.837847497,-0.283597918,,98.76888067,1.829445569e-06,4.940594655e-06,3.807779753e-07
50.9167,2.697209778,0.05219074713,-32.06275468,4.837847754,-0.2835971341,,98.76888073,5.454745829e-06,1.090208835e-05,8.396015091e-07
51.025,2.69721477,0.0521894077,-32.06275811,4.837848425,-0.2835960186,,98.76888082,7.94369669e-06,8.927807548e-06,6.680197213e-07
51.125,2.697216403,0.05219112376,-32.06275545,4.837849157,-0.2835950516,,98.76888089,7.669891805e-06,6.746756232e-06,4.971053835e-07
51.2083,2.697166893,0.0521872567,-32.06277782,4.837849694,-0.2835944093,,98.76888094,9.96853709e-06,2.939892774e-06,1.801555854e-07
51.3167,2.698071217,0.05207069867,-32.06267665,4.837845165,-0.2835952405,,98.7688809,-0.0003562748344,-6.814567724e-05,-3.45513824e-06
51.4167,2.698902664,0.05191458749,-32.06259936,4.837732901,-0.2836136003,,98.76888005,-0.002012052413,-0.0003269050334,-1.491256956e-05
51.525,2.69927047,0.05187736908,-32.06265301,4.837432094,-0.2836622991,,98.76887784,-0.004278429905,-0.0006871441757,-3.106921072e-05
51.6083,2.699230608,0.05191230789,-32.0629702,4.836995262,-0.2837312878,,98.76887476,-0.006444365184,-0.001000311085,-4.403090837e-05
51.7083,2.698783703,0.05196396641,-32.06268286,4.836150744,-0.2838603739,,98.76886915,-0.009373274094,-0.001417792435,-6.106429925e-05
51.8083,2.698048619,0.052073149,-32.06264447,4.835091913,-0.2840198581,,98.76886231,-0.01199454275,-0.001801425306,-7.708520207e-05
51.9167,2.697062044,0.05220532382,-32.06284775,4.833780246,-0.2842168571,,98.76885388,-0.01438802375,-0.002153359289,-9.181828644e-05
52.0167,2.695934858,0.05235378993,-32.06278621,4.832243011,-0.2844470036,,98.76884407,-0.01647590844,-0.002474982119,-0.0001058024964
52.1167,2.69466022,0.05259330518,-32.0629891,4.830511815,-0.2847075123,,98.76883292,-0.01823713108,-0.002754273144,-0.0001182010346
52.225,2.693145868,0.05281927687,-32.06304001,4.828457087,-0.2850180654,,98.76881959,-0.01974798142,-0.00298972059,-0.0001284618781
52.3083,2.691869503,0.05303216191,-32.06323897,4.826605393,-0.2852977759,,98.7688076,-0.02069297857,-0.003111605351,-0.0001328289282
52.425,2.690303646,0.0533009945,-32.06325131,4.82432253,-0.2856397681,,98.76879305,-0.0214623024,-0.003203922483,-0.0001357866657
52.5083,2.6890723,0.05339245588,-32.0635152,4.82251906,-0.2859088004,,98.76878166,-0.02182985628,-0.003260701056,-0.0001381583105
52.6167,2.687478777,0.0536621809,-32.06360681,4.82014162,-0.2862633549,,98.76876667,-0.02203224802,-0.003283352666,-0.0001387029701
52.7167,2.685959248,0.05393287643,-32.06382963,4.817755213,-0.2866195525,,98.76875161,-0.02197938533,-0.003280174367,-0.0001386070045
52.8083,2.684693718,0.05406719188,-32.06390552,4.81574835,-0.286918555,,98.768739,-0.02176781263,-0.003246195187,-0.0001369676154
52.9167,2.683337683,0.05428965283,-32.06385068,4.813588327,-0.2872407163,,98.76872541,-0.02138112239,-0.00319177292,-0.0001346726957
53.0167,2.681894462,0.05451915606,-32.06385331,4.811299688,-0.2875825119,,98.76871099,-0.0208054865,-0.003108087026,-0.0001311004134
53.125,2.680696321,0.05467919987,-32.06417401,4.8092472,-0.2878894434,,98.76869804,-0.02017641604,-0.003018161253,-0.0001273486513
53.2083,2.679598543,0.05490478159,-32.06422685,4.807424465,-0.2881622937,,98.76868653,-0.01952780503,-0.00291539509,-0.0001227121975
53.325,2.678346907,0.0549993484,-32.06426925,4.805350068,-0.2884721824,,98.76867348,-0.01868688958,-0.002802066051,-0.0001182881236
53.4083,2.695643964,0.05063167378,-32.06362745,4.803567144,-0.2887540941,,98.76866105,-0.02472088931,-0.004534004854,-0.0002216782982
53.5167,2.708725844,0.0498091441,-32.06283401,4.799805074,-0.2894773071,,98.76862472,-0.05541997363,-0.01054444593,-0.0005262706749
53.625,2.704030666,0.05165782446,-32.06280059,4.791821531,-0.2909305761,,98.76855419,-0.09474504698,-0.01654397398,-0.0007804444942
53.7083,2.69415071,0.05347812829,-32.06351462,4.782888599,-0.2924512502,,98.76848381,-0.1215376922,-0.02017410664,-0.00091545103
53.8083,2.677750428,0.05607156734,-32.06481946,4.768301265,-0.2948192497,,98.76837843,-0.1481472215,-0.02355387056,-0.001028393833
53.9167,2.661150259,0.05856376177,-32.06579233,4.75270501,-0.2972674047,,98.76827296,-0.163635816,-0.02536685994,-0.001078138764
54.025,2.643313886,0.06117753486,-32.0671287,4.734520198,-0.3000624666,,98.76815547,-0.1711596334,-0.02608339771,-0.001084332927
54.1167,2.628967834,0.06328306647,-32.06818498,4.718795965,-0.302447041,,98.76805709,-0.1709949181,-0.02579719672,-0.001055927144
54.2083,2.615815138,0.06515788737,-32.06922944,4.703300678,-0.3047767681,,98.76796234,-0.1658902465,-0.02485260101,-0.001004179763
54.3167,2.602025372,0.06717502984,-32.07032831,4.68583638,-0.3073853365,,98.76785762,-0.1549145752,-0.02307278541,-0.0009202707199
54.425,2.590346843,0.06881784028,-32.07119913,4.66976523,-0.3097743691,,98.76776285,-0.1401519974,-0.02079149296,-0.0008204055429
54.5083,2.582747256,0.06990992606,-32.07186351,4.658567442,-0.3114338712,,98.76769759,-0.1271160412,-0.01882325957,-0.0007377823574
54.6167,2.57472162,0.07109993915,-32.07267299,4.645693004,-0.3133383014,,98.76762323,-0.1090402217,-0.01611720948,-0.0006270172579
54.7083,2.56900411,0.07200357019,-32.07291688,4.63556862,-0.3148340119,,98.76756521,-0.09205085179,-0.01358652633,-0.0005254565348
54.8167,2.564715979,0.07257063772,-32.07325775,4.627130801,-0.316079828,,98.76751711,-0.07542867422,-0.01113687579,-0.0004292074218
54.9167,2.561546142,0.07301797757,-32.07374298,4.619823493,-0.3171579144,,98.76747566,-0.05836152558,-0.008602678715,-0.0003299179238
55.0167,2.559751551,0.07336660882,-32.07375934,4.614664142,-0.3179179019,,98.76744656,-0.04382502644,-0.006450714208,-0.0002464661833
55.125,2.558890401,0.07341091519,-32.07379183,4.610897072,-0.3184716982,,98.76742545,-0.03065945695,-0.004506544453,-0.0001716494874
55.225,2.558777258,0.07347758167,-32.0738232,4.608379599,-0.3188404979,,98.76741146,-0.01896496692,-0.002764333633,-0.0001042965705
55.325,2.559291307,0.07338780433,-32.0737745,4.606962227,-0.3190463087,,98.76740373,-0.008781291045,-0.001259343936,-4.670193698e-05
55.4083,2.560093605,0.07322152807,-32.07371232,4.606514043,-0.3191090516,,98.76740146,-0.001400010165,-0.0001690700219,-5.047763167e-06
55.5083,2.561443761,0.07305323994,-32.07380404,4.60673269,-0.3190723994,,98.76740302,0.006176899837,0.0009593602097,3.840390842e-05
55.6083,2.563222424,0.07280332275,-32.0736725,4.607751035,-0.3189158745,,98.76740923,0.01290210531,0.001966670613,7.743888056e-05
55.7083,2.56509804,0.07251322806,-32.07340252,4.609278151,-0.3186836115,,98.76741836,0.01786682559,0.002717881457,0.00010688847
55.825,2.56733381,0.07215511376,-32.0734137,4.611432813,-0.318356099,,98.76743124,0.02203644172,0.00334544104,0.0001314505212
55.9083,2.569071405,0.07191258635,-32.07338429,4.613365919,-0.3180629458,,98.76744275,0.02450343908,0.003712342684,0.0001457142579
56.0083,2.571366199,0.07157696105,-32.07299706,4.616145667,-0.3176413332,,98.76745932,0.02684650065,0.004073040308,0.0001602777956
56.1167,2.573503362,0.07127775669,-32.07287802,4.6189007,-0.3172226609,,98.76747583,0.02826480272,0.004300453584,0.0001698793042
56.225,2.575787807,0.07087216131,-32.07271665,4.6220108,-0.3167499086,,98.7674945,0.02911720536,0.004419309936,0.0001744166131
56.3083,2.577495205,0.07066538543,-32.0724771,4.624448686,-0.3163800794,,98.7675091,0.02936048623,0.00445475205,0.0001759510529
56.4083,2.579655846,0.07027557178,-32.07231959,4.627627509,-0.3158968793,,98.76752823,0.02924433466,0.00445165596,0.0001766002333
56.5083,2.581612405,0.07000680437,-32.07234842,4.630532565,-0.3154544918,,98.7675458,0.02876913244,0.004385881579,0.0001744525997
56.6167,2.583401649,0.06976150251,-32.07207187,4.633377228,-0.3150212149,,98.76756303,0.02801864713,0.004273821759,0.0001702926198
56.725,2.585308515,0.06944634775,-32.07207482,4.636362072,-0.3145658386,,98.76758119,0.0269669172,0.004116927909,0.0001643814882
56.8167,2.586762658,0.06921309812,-32.07183866,4.638790889,-0.3141943997,,98.76759605,0.02591496292,0.003969013877,0.0001591019552
56.925,2.588440869,0.0689156397,-32.07173233,4.641530276,-0.3137750709,,98.76761286,0.02453279834,0.003744580401,0.0001498228769
57.0083,2.589754074,0.06882562749,-32.07163232,4.643728155,-0.313439162,,98.76762632,0.02329429497,0.003570671715,0.0001435529504
57.1083,2.590999981,0.06859385484,-32.07155674,4.645993305,-0.3130920271,,98.76764028,0.02189044692,0.003352924565,0.0001348353698
57.2167,2.592333954,0.06838597697,-32.07132181,4.648287358,-0.3127395186,,98.7676545,0.02033779258,0.003135807905,0.000126976948
57.325,2.5934194,0.06819424907,-32.07140889,4.650255426,-0.3124370674,,98.76766672,0.01890506786,0.00289422879,0.0001165518333
57.4083,2.594308774,0.06807239613,-32.07147033,4.651786352,-0.3122022799,,98.76767619,0.01772021539,0.002719567707,0.0001098343469
57.5083,2.595319995,0.06786935825,-32.07112828,4.653629892,-0.3119192322,,98.76768763,0.01619791305,0.002481833731,0.0001001639897
57.6167,2.596169693,0.06773632476,-32.07110487,4.655186911,-0.3116799186,,98.76769732,0.01483881672,0.002284209035,9.263264798e-05
57.725,2.596962459,0.06771392068,-32.07102863,4.656723351,-0.3114427484,,98.76770696,0.01342593315,0.002078972027,8.480827902e-05
57.8083,2.597531257,0.06758265714,-32.07111061,4.657802954,-0.3112757619,,98.76771377,0.01238388233,0.001915030536,7.806356977e-05
57.9083,2.598166107,0.06753859566,-32.07086389,4.659079125,-0.3110788746,,98.76772178,0.01109299628,0.001707584677,6.936662957e-05
58.0083,2.598754574,0.06736517981,-32.07095565,4.660136498,-0.3109158833,,98.76772841,0.00996492999,0.001536036365,6.250046207e-05
58.1167,2.599201274,0.06726494967,-32.07084623,4.661083812,-0.3107693125,,98.7677344,0.008901528322,0.00137918195,5.639262768e-05
58.2167,2.599633394,0.06721852379,-32.07081645,4.661993434,-0.3106288297,,98.76774012,0.007822710803,0.001209936255,4.941696906e-05
58.3167,2.599991438,0.06720552346,-32.07066325,4.662732631,-0.3105144,,98.7677448,0.006897966759,0.001065569231,4.348760071e-05
58.4083,2.600243686,0.06717859136,-32.07071756,4.663280592,-0.3104295675,,98.76774827,0.006190453041,0.0009623422338,3.950039269e-05
58.5167,2.600564268,0.06709188252,-32.07069294,4.66390833,-0.3103316408,,98.7677523,0.00534315962,0.0008329339358,3.428166498e-05
58.6083,2.600779262,0.06705593059,-32.07080239,4.664370059,-0.3102595109,,98.76775528,0.004677206775,0.0007298786375,3.007230582e-05
58.7083,2.600951345,0.06704457807,-32.07066609,4.664840227,-0.3101861459,,98.7677583,0.003957600092,0.000614666051,2.522727391e-05
58.8083,2.601093897,0.06705688266,-32.07077838,4.665207313,-0.3101283948,,98.7677607,0.003350740271,0.00052707957,2.187294961e-05
58.9167,2.601217337,0.06697831921,-32.07055158,4.665517151,-0.310079366,,98.76776274,0.002813328992,0.000435577291,1.783394873e-05
59.0167,2.601347276,0.06694896017,-32.07071795,4.665795152,-0.3100360428,,98.76776453,0.002286056782,0.000358022597,1.480640891e-05
59.125,2.60140423,0.06698333725,-32.07066913,4.666003362,-0.3100033146,,98.76776588,0.001855697904,0.0003036253213,1.301540807e-05
59.2083,2.601432725,0.0669523384,-32.07061323,4.666158299,-0.3099782031,,98.76776695,0.001500388126,0.0002386579836,1.000248098e-05
59.3167,2.601524539,0.0669333428,-32.07062524,4.666302415,-0.3099556097,,98.76776789,0.001135338597,0.0001768340805,7.281131273e-06
59.4083,2.601504704,0.06698066322,-32.07061768,4.666394623,-0.3099408655,,98.76776851,0.0008566435281,0.0001479866167,6.610215659e-06
59.5083,2.601522365,0.06694102117,-32.0705974,4.666462871,-0.3099288029,,98.76776906,0.0006190014762,0.0001104989275,5.046523301e-06
59.6167,2.60150945,0.06691575365,-32.07068027,4.666519715,-0.3099185181,,98.76776953,0.0003538445827,5.863706731e-05,2.536388665e-06
59.7083,2.601518444,0.0669261399,-32.07068174,4.666543326,-0.3099142913,,98.76776972,0.0001988721905,4.108570037e-05,2.047272608e-06
59.8167,2.601475059,0.06695195974,-32.07063138,4.666555836,-0.3099114744,,98.76776987,2.81920095e-05,1.569582615e-05,1.045186499e-06
59.9167,2.601469842,0.06694665198,-32.07061353,4.666551903,-0.3099108079,,98.76776994,-0.0001088950521,-5.310779315e-06,1.919829673e-07
60.0083,2.601438815,0.06696017477,-32.07057965,4.66653857,-0.3099123124,,98.7677699,-0.0002134314168,-3.220254615e-05,-1.287217292e-06
60.1083,2.601382862,0.06697621658,-32.07064962,4.666510421,-0.3099164516,,98.76776974,-0.0003053605549,-3.96302672e-05,-1.352334308e-06
60.2167,2.601343281,0.06697633724,-32.07066818,4.666472768,-0.3099214942,,98.76776956,-0.0003885011543,-4.913807131e-05,-1.621853027e-06
60.3167,2.60130771,0.06695547965,-32.07064106,4.6664318,-0.3099264797,,98.7677694,-0.0004262500373,-5.88295232e-05,-2.151413577e-06
60.4083,2.601270005,0.06700021064,-32.07061535,4.666395284,-0.3099319555,,98.76776919,-0.0004496250961,-6.76869645e-05,-2.702155465e-06
60.525,2.601261041,0.06697176597,-32.07067095,4.666341284,-0.3099401236,,98.76776886,-0.0004765318118,-7.862284104e-05,-3.393826063e-06
60.6083,2.601207033,0.06699920461,-32.07065361,4.66629685,-0.3099473604,,98.76776855,-0.0004922026003,-7.446108396e-05,-2.987801501e-06
60.7167,2.60119397,0.06699474014,-32.07070808,4.666242555,-0.3099551567,,98.76776825,-0.0005101860918,-7.063665851e-05,-2.592988045e-06
60.8083,2.601132861,0.06703646012,-32.07065782,4.666200156,-0.3099608698,,98.76776805,-0.0005002238478,-6.538970764e-05,-2.245601431e-06
60.9083,2.601097857,0.06697539586,-32.0706873,4.666146694,-0.3099674333,,98.76776784,-0.0004832021569,-6.275764974e-05,-2.142144333e-06
61.0167,2.601086675,0.06699901389,-32.07065709,4.666095319,-0.3099742694,,98.7677676,-0.0004648131913,-6.720806193e-05,-2.585168532e-06
61.125,2.601034339,0.06700885665,-32.07070002,4.666049957,-0.3099808325,,98.76776735,-0.0004365498596,-6.612474975e-05,-2.656648774e-06
61.2083,2.601029463,0.0670154252,-32.07068868,4.666010381,-0.3099863135,,98.76776715,-0.000426120892,-5.292656074e-05,-1.703804738e-06
61.3167,2.600980585,0.06700694116,-32.07066328,4.665966626,-0.3099919489,,98.76776696,-0.0003751810589,-5.479093821e-05,-2.128368013e-06
61.425,2.600984535,0.06701498896,-32.07064332,4.665930412,-0.3099973339,,98.76776674,-0.0003477284207,-5.070569869e-05,-1.962770094e-06
61.5083,2.600962016,0.06700801139,-32.07069174,4.665899417,-0.3100014597,,98.7677666,-0.000322232406,-4.430496853e-05,-1.617376665e-06
61.6167,2.600963134,0.06700320689,-32.0706739,4.665865844,-0.3100058282,,98.76776645,-0.0003000935473,-4.115027804e-05,-1.494636771e-06
61.7083,2.601023493,0.06699725741,-32.07065908,4.665840199,-0.3100098674,,98.76776628,-0.0003318155053,-5.964020928e-05,-2.738088135e-06
61.8167,2.601571753,0.06687431946,-32.07061724,4.665796883,-0.310017222,,98.76776596,-0.0006088202197,-0.0001151934861,-5.465021406e-06
61.925,2.606880724,0.06569935041,-32.0704013,4.665607226,-0.3100604737,,98.76776369,-0.004344049593,-0.0009969776703,-5.237289962e-05
62.0083,2.613691634,0.06462177405,-32.07002631,4.664836936,-0.3102281873,,98.7677551,-0.01459792193,-0.003048052907,-0.0001528141845
62.125,2.619344314,0.06393999444,-32.06961925,4.662294277,-0.3107317647,,98.76773059,-0.03526235661,-0.006703762626,-0.0003183850506
62.2167,2.620843762,0.0639731216,-32.06943458,4.658146389,-0.3114971696,,98.76769493,-0.05788767283,-0.01040042498,-0.0004756626399
62.325,2.618837647,0.06453649558,-32.06985828,4.650392078,-0.3128557596,,98.76763395,-0.08796689282,-0.01508659722,-0.0006659147553
62.4083,2.614700619,0.06525786624,-32.07016247,4.642160118,-0.3142506049,,98.76757304,-0.1120511751,-0.01875633863,-0.0008103818208
62.5083,2.6064359,0.06671109652,-32.07066038,4.628461793,-0.316517055,,98.76747626,-0.1430705662,-0.0234156636,-0.0009885607309
62.6167,2.596260404,0.06834654542,-32.07137623,4.61289045,-0.3190470235,,98.76737042,-0.1703283415,-0.02747548087,-0.001138988298
62.7167,2.582949596,0.07048189874,-32.07251733,4.593057029,-0.3222289733,,98.76723966,-0.1974395656,-0.03149474466,-0.001282636832
62.8167,2.568687775,0.07280579314,-32.07349902,4.572270811,-0.3255327296,,98.76710613,-0.2196382079,-0.03477240572,-0.001394438024
62.925,2.553035965,0.07522116868,-32.07485085,4.549406987,-0.3291419803,,98.76696248,-0.2386893051,-0.03755694044,-0.001483083439
63.0083,2.538980671,0.07740537629,-32.07548662,4.52900082,-0.332346853,,98.7668367,-0.2519855123,-0.03949008591,-0.001539811572
63.1167,2.518342145,0.08063234131,-32.07723522,4.498771136,-0.3370730814,,98.76665406,-0.2664694269,-0.0415585305,-0.001591516056
63.2083,2.503082007,0.0830249142,-32.07835055,4.476271929,-0.3405774813,,98.76652071,-0.2738431975,-0.04258194481,-0.001609567702
63.3167,2.482879514,0.08612158263,-32.07975886,4.446271471,-0.3452363408,,98.76634605,-0.279803571,-0.04338611409,-0.001612929448
63.4167,2.462660191,0.08927441012,-32.08137371,4.415823134,-0.3499503663,,98.76617231,-0.2818517645,-0.04357341424,-0.001592175758
63.525,2.444193688,0.09217254574,-32.08288929,4.387673531,-0.3542974884,,98.76601471,-0.2805470253,-0.0432625344,-0.001555748297
63.6083,2.429115491,0.09444679859,-32.08361512,4.364402268,-0.3578843452,,98.76588652,-0.2773422384,-0.04272014001,-0.00151717271
63.7083,2.410214771,0.09739186998,-32.08517887,4.33466705,-0.3624605944,,98.76572533,-0.2706621868,-0.04160674366,-0.001453110252
63.8167,2.393457941,0.09988356794,-32.08651236,4.307967847,-0.3665616865,,98.76558317,-0.2623112731,-0.04026242895,-0.001385245337
63.9167,2.376242475,0.1025073892,-32.08759182,4.280082106,-0.3708394548,,98.76543712,-0.2513604888,-0.03854502922,-0.001306106635
64.025,2.361404747,0.1048048745,-32.08874026,4.255460868,-0.3746138112,,98.76531008,-0.2399231363,-0.03676623291,-0.001229182323
64.1167,2.348643064,0.1068504395,-32.08987989,4.233935161,-0.3779115269,,98.76520049,-0.2285908454,-0.03499617167,-0.001155714976
64.225,2.334610113,0.1089069769,-32.09079536,4.209870375,-0.3815936093,,98.76507975,-0.2145055427,-0.03281462107,-0.001068998709
64.3083,2.324600794,0.110397017,-32.09156653,4.192410565,-0.3842644639,,98.76499315,-0.2033993835,-0.03112765792,-0.001004978867
64.4083,2.313471888,0.1121869594,-32.09247624,4.172686413,-0.3872826619,,98.76489624,-0.1899655504,-0.02906310448,-0.000928046122
64.5083,2.302410176,0.1138908626,-32.09320835,4.152830579,-0.3903198701,,98.76479981,-0.1755259217,-0.02684254458,-0.0008474477114
64.6167,2.292449208,0.1154026404,-32.09410865,4.134525692,-0.3931192368,,98.76471187,-0.1613877324,-0.02467553089,-0.0007709911956
64.7083,2.285259093,0.1165052288,-32.09436893,4.121476369,-0.3951137745,,98.76464981,-0.1507611689,-0.02302958705,-0.000713569657
64.825,2.275123687,0.1181147073,-32.09516782,4.104694922,-0.3976755956,,98.76457087,-0.1356824427,-0.02067997166,-0.000633036875
64.9167,2.266283854,0.1196623018,-32.09577374,4.092796295,-0.3994834411,,98.76451592,-0.122336513,-0.01848434069,-0.0005561656822
65.0083,2.25501708,0.1215874451,-32.09646839,4.082252169,-0.4010624859,,98.76446907,-0.1052337357,-0.01551135142,-0.0004496703061
65.1167,2.238543591,0.1242806944,-32.09768891,4.072240794,-0.4024965826,,98.76442918,-0.07509341683,-0.01017499582,-0.000259758959
65.2083,2.224350428,0.126280387,-32.09845262,4.066476181,-0.4032107837,,98.76441371,-0.03490705472,-0.003257843844,-2.293314135e-05
65.325,2.215413071,0.1272008098,-32.09903754,4.065347417,-0.4031261853,,98.76442552,0.01980435395,0.005668363145,0.0002655094773
65.4083,2.214674088,0.1269419528,-32.0993486,4.068727108,-0.4023826828,,98.76445605,0.06627938485,0.0129145371,0.0004890126764
65.5167,2.22264177,0.1251562069,-32.0984412,4.080019686,-0.4003388569,,98.76452921,0.1314562829,0.02266595855,0.0007792540965
65.6083,2.233463691,0.1233353959,-32.09774967,4.092623338,-0.3982091699,,98.76460127,0.1747374586,0.02895851382,0.0009645316284
65.725,2.25344687,0.1201294943,-32.09644429,4.11598862,-0.39440278,,98.76472662,0.2280992727,0.03660771063,0.00119447523
65.825,2.274144366,0.1169004488,-32.09508749,4.140598776,-0.3904868907,,98.76485406,0.2659572945,0.04196173053,0.001362351597
65.9083,2.293433017,0.1138671863,-32.09365683,4.163749655,-0.3868526233,,98.76497214,0.291212991,0.04547083798,0.001477978761
66.0167,2.320029603,0.1098637751,-32.09191389,4.196588729,-0.3817496201,,98.76513859,0.3152656705,0.04876221664,0.001596489532
66.1083,2.343029071,0.1062995005,-32.09020398,4.226074762,-0.3772020918,,98.76528817,0.3281607757,0.05044765083,0.001666516561
66.2167,2.36994256,0.1022532479,-32.08815026,4.262063871,-0.371683531,,98.76547169,0.3354976582,0.0513239525,0.001718609791
66.325,2.395881521,0.09835400285,-32.08634723,4.298474839,-0.3661209217,,98.76565944,0.3356323103,0.05122218396,0.001743290418
66.4083,2.416803334,0.09521588453,-32.08481926,4.329083433,-0.3614522423,,98.76581948,0.3311725529,0.05048251904,0.00174290338
66.5167,2.438359407,0.091920689,-32.08354015,4.361834365,-0.3564618214,,98.76599311,0.3225721944,0.0491330364,0.001722892741
66.625,2.460189217,0.08860957964,-32.08186277,4.396175889,-0.3512299617,,98.76617817,0.3099702118,0.04723282552,0.001685210989
66.7083,2.477308842,0.08595748097,-32.08038071,4.424076827,-0.3469763334,,98.76633104,0.2974075502,0.04535474861,0.001641536763
66.8167,2.496026683,0.08310283996,-32.07913971,4.455491359,-0.3421838936,,98.76650586,0.2811087056,0.04289609461,0.001576945135
66.9083,2.509422262,0.0811488114,-32.0779105,4.478425118,-0.3386817057,,98.7666354,0.26791392,0.04095118441,0.001524347908
67.0083,2.525493792,0.07866405867,-32.07687232,4.506574631,-0.3343766261,,98.76679678,0.2503810872,0.03832556883,0.001447346558
67.1167,2.539042684,0.07655388855,-32.07578552,4.530869175,-0.3306562725,,98.76693812,0.2341825969,0.03587590731,0.001371050098
67.2167,2.552481403,0.07450560329,-32.07469838,4.555371906,-0.3268999309,,98.76708256,0.2169191838,0.03328969753,0.001288529989
67.3083,2.562012696,0.07304879932,-32.0739218,4.572961263,-0.3241990834,,98.76718756,0.2039911382,0.03134810238,0.001224516375
67.4083,2.573381677,0.07123047117,-32.07321267,4.594243154,-0.3209273969,,98.767316,0.1877802952,0.02888414525,0.001139919449
67.5167,2.582963967,0.06972436746,-32.07235365,4.612361663,-0.3181383367,,98.76742659,0.1735131543,0.02672658383,0.001064532974
67.625,2.592408977,0.06832000305,-32.07148351,4.630419616,-0.3153566326,,98.76753783,0.1588759477,0.02448531154,0.0009834365778
67.7167,2.600353112,0.06709590812,-32.0711238,4.645717164,-0.312997344,,98.76763296,0.1461430354,0.02255462818,0.0009130435817
67.8083,2.606403548,0.06611301754,-32.07026004,4.657516715,-0.3111761807,,98.76770686,0.1361303019,0.02101627134,0.0008553224584
67.9167,2.614146572,0.06493378009,-32.06992991,4.672677011,-0.3088351381,,98.76780247,0.1229915482,0.01899697536,0.0007784837471
68.0167,2.619169266,0.06413895937,-32.06935555,4.682594172,-0.3073032935,,98.76786537,0.1142284552,0.01764434467,0.0007261256778
68.125,2.62558739,0.06311069591,-32.0688856,4.695291875,-0.3053413733,,98.76794635,0.1027906268,0.01588419783,0.0006574327145
68.2083,2.62976855,0.0625522298,-32.0686852,4.703569621,-0.3040622403,,98.76799938,0.09519044167,0.01472733151,0.0006123178698
68.325,2.634983135,0.06168294093,-32.06792488,4.714130793,-0.3024291352,,98.76806739,0.08530908217,0.01318507557,0.0005501270767
68.425,2.639066131,0.06105900125,-32.06782664,4.722300462,-0.3011663889,,98.76812017,0.07753249188,0.01198711374,0.0005019914044
68.5083,2.642447765,0.0605204747,-32.0674708,4.729127904,-0.3001111681,,98.76816441,0.07090603613,0.01095560822,0.0004598444329
68.6167,2.645824048,0.05997751461,-32.06719621,4.735906679,-0.2990636592,,98.76820844,0.06419598235,0.009916996536,0.0004173540535
68.7167,2.649032245,0.05952281427,-32.06682921,4.74252156,-0.2980417647,,98.76825151,0.05750740878,0.008887839806,0.0003752179742
68.8083,2.65130386,0.05911155529,-32.06670121,4.747133182,-0.2973289576,,98.76828163,0.05274554076,0.008140046097,0.0003438731218
68.9083,2.653961855,0.05874691259,-32.06656931,4.752555723,-0.2964917258,,98.76831705,0.04700459141,0.007262236632,0.0003077720913
69.0083,2.65605337,0.05841915792,-32.0662561,4.757030305,-0.2958008961,,98.76834634,0.0421525579,0.006503033017,0.0002757670809
69.1167,2.657972749,0.05818036912,-32.06592155,4.761037423,-0.295182789,,98.76837256,0.03767940556,0.005820584119,0.0002475087421
69.225,2.65982202,0.0578488444,-32.06592011,4.764893282,-0.2945876432,,98.76839788,0.03323168132,0.005127517217,0.0002181667661
69.3083,2.661203797,0.05759122111,-32.0658987,4.767793072,-0.2941406458,,98.76841689,0.02976544978,0.004585287398,0.0001950621562
69.4167,2.662683095,0.05739312908,-32.0656407,4.770826117,-0.2936730428,,98.7684368,0.02598833053,0.004017137642,0.0001715940152
69.5083,2.663598692,0.05728441253,-32.06547131,4.772889769,-0.2933546103,,98.76845039,0.02330984356,0.003592464393,0.000153202592
69.6083,2.664619863,0.05705607238,-32.06552923,4.775082906,-0.2930164813,,98.76846482,0.02034935638,0.003129777626,0.0001333568491
69.7083,2.665513931,0.05697836418,-32.06543969,4.777137806,-0.2926999008,,98.76847833,0.01741508319,0.002684344251,0.0001146863207
69.8167,2.66627003,0.05684890292,-32.06534527,4.77876379,-0.2924487583,,98.76848909,0.01493787566,0.00230801414,9.887112027e-05
69.9167,2.666910717,0.05675538056,-32.06536786,4.780257542,-0.2922172095,,98.76849903,0.01249089701,0.001941876676,8.366339813e-05
70.0167,2.667352771,0.05668300116,-32.06523953,4.781411352,-0.2920375763,,98.76850679,0.01044521954,0.001627391423,7.027215467e-05
70.125,2.667772569,0.05658588826,-32.06530466,4.782368651,-0.2918886736,,98.76851321,0.008574464643,0.001327549823,5.705140101e-05
70.2083,2.668029053,0.05651416763,-32.06530096,4.783029349,-0.2917861261,,98.76851763,0.007156500761,0.001102708706,4.721221652e-05
70.3167,2.668241134,0.0565195743,-32.06511193,4.783718491,-0.2916795343,,98.76852221,0.00546849087,0.0008460086602,3.635397256e-05
70.4083,2.66839823,0.05654777636,-32.06513401,4.78416513,-0.2916101189,,98.7685252,0.00417762413,0.0006507341772,2.812694827e-05
70.5083,2.668458529,0.05646380404,-32.06515704,4.784547776,-0.2915504111,,98.76852778,0.002814844531,0.0004360068861,1.875841421e-05
70.6167,2.66850894,0.0564543002,-32.0651899,4.784777067,-0.2915145799,,98.76852934,0.001695934625,0.0002676384215,1.169094528e-05
70.7167,2.66846582,0.05647306061,-32.06512539,4.784900255,-0.2914950063,,98.7685302,0.000701481887,0.0001046394169,4.357628456e-06
70.825,2.668355308,0.05652061402,-32.06518189,4.78492734,-0.2914918263,,98.7685303,-0.000251715114,-4.412632878e-05,-2.083721675e-06
70.925,2.668212062,0.05655092657,-32.06519741,4.784867202,-0.2915014461,,98.76852987,-0.0009940955666,-0.0001564498906,-6.820338005e-06
71.0083,2.668080984,0.05655763297,-32.06523167,4.78476378,-0.2915169732,,98.76852922,-0.001530560228,-0.0002239296847,-9.169064417e-06
71.1167,2.667879562,0.05659235718,-32.06512954,4.784567161,-0.2915461236,,98.76852801,-0.002123805537,-0.0003230659295,-1.368773606e-05
71.2083,2.667685933,0.05666857798,-32.0651672,4.78435414,-0.2915786679,,98.76852663,-0.002553412359,-0.0003765307461,-1.552585769e-05
71.325,2.667380977,0.05664816507,-32.06524818,4.784030815,-0.2916249393,,98.76852477,-0.002993675342,-0.00043353315,-1.757754838e-05
71.4167,2.667173576,0.05666649912,-32.06527115,4.783745237,-0.2916662496,,98.7685231,-0.003248538175,-0.0004730466286,-1.927619896e-05
71.5167,2.667047898,0.05669852078,-32.06538848,4.783438523,-0.2917113693,,98.76852125,-0.003468008267,-0.000517660423,-2.15715237e-05
71.6083,2.669532749,0.05606264756,-32.0653475,4.783016501,-0.2917776824,,98.76851836,-0.005039716544,-0.0008927991812,-4.23847255e-05
71.7167,2.674696501,0.05520534775,-32.06490877,4.78225754,-0.2919213871,,98.76851125,-0.01172319776,-0.002266468929,-0.0001134723414
71.8083,2.679174575,0.05464985443,-32.06476438,4.780546148,-0.292247436,,98.76849507,-0.02453337219,-0.004571584607,-0.0002238507455
71.925,2.681823722,0.05436040631,-32.06442858,4.776951444,-0.2928997456,,98.76846367,-0.04422867138,-0.00784380262,-0.0003718118584
72.0083,2.682197147,0.05444441108,-32.06451875,4.772594265,-0.2936616437,,98.76842792,-0.06258323174,-0.01078356691,-0.0005005415332
72.1083,2.698189935,0.05475626234,-32.06324264,4.764498968,-0.2950382838,,98.7683647,-0.08715643566,-0.01503497461,-0.0006963185504
72.2167,2.850868978,0.05179676323,-32.05096821,4.75594296,-0.2968960891,,98.76819044,-0.06311830531,-0.01957405918,-0.001181256778
72.325,3.025605778,0.04042740512,-32.035251,4.751120064,-0.2990412988,,98.76790929,-0.03113971547,-0.02326423968,-0.001643910013
72.4083,3.190917578,0.05036066742,-32.02389887,4.749417566,-0.301208056,,98.76757506,-0.008047127137,-0.0269096343,-0.008667162094
72.5167,3.42081716,0.0721903438,-32.00906084,4.749827817,-0.3044646958,,98.76684359,0.01658120692,-0.03430914666,-0.002885577272
72.625,3.677981755,0.005115977007,-31.98120636,4.752643017,-0.3082906486,,98.76581945,0.03616881258,-0.03210676248,-0.02000372936
72.7083,3.902729373,0.1385116506,-31.97402466,4.756541243,-0.3118091029,,98.76450637,0.04967064259,-0.0501817895,-0.01939771014
72.825,4.184305665,0.001974636834,-31.93884616,4.762592391,-0.3164591065,,98.76185318,0.0625378409,-0.03783287178,-0.03777691844
72.9083,4.420645912,0.1370565975,-31.93615188,4.768702747,-0.3205971348,,98.75844223,0.07125067478,-0.05436887092,-0.03924567558
73.025,4.709986629,-0.01454611244,-31.89459455,4.776842292,-0.3259230063,,98.75297123,0.07924917372,-0.04154570249,-0.06325744609
73.1167,4.949071871,0.1701432195,-31.89722314,4.784327235,-0.330496407,,98.7467231,0.08427342512,-0.0611971044,-0.07529459309
73.225,5.229988961,-0.04198971879,-31.84949869,4.793679962,-0.3362370992,,98.73714183,0.08837833718,-0.04158815789,-0.1038376382
73.3083,5.459478456,0.2049093149,-31.85929046,4.801876597,-0.3410047967,,98.72679244,0.09044016218,-0.06589131158,-0.1248958465
73.4167,5.720845021,0.1016335791,-31.81275867,4.811735574,-0.3469352258,,98.71129221,0.09145992507,-0.05786262033,-0.1648378735
73.525,5.950404214,0.03213466172,-31.79817475,4.820871242,-0.3524896904,,98.69260138,0.09105850688,-0.04967511048,-0.2111129861
73.6167,6.149829544,0.257661171,-31.8158561,4.829173476,-0.3571596298,,98.67165866,0.08979253181,-0.06232720182,-0.2453049291
73.725,6.368987912,-0.1765211318,-31.73943306,4.838789905,-0.3630368228,,98.64226271,0.08737748221,-0.02667296661,-0.2999146504
73.8083,6.527383224,-0.1820623062,-31.72426541,4.845982517,-0.3673105405,,98.61550285,0.08493489329,-0.02541624818,-0.3450884369
73.925,6.734281127,0.04044172639,-31.73276103,4.855675144,-0.3728767209,,98.57167251,0.0808183626,-0.04398707961,-0.4098472746
74.0083,6.882774191,0.07208609432,-31.72700269,4.862932788,-0.3770892939,,98.53196412,0.07712792298,-0.04511586514,-0.4613230879
74.1083,7.019248322,0.06622269569,-31.71511915,4.86984098,-0.3811321711,,98.48749087,0.07318132594,-0.04296136586,-0.5140410492
74.2167,7.166149466,0.05923716877,-31.70238637,4.877526861,-0.3856602179,,98.4286266,0.06828598113,-0.04042047333,-0.5778520311
74.325,7.298163774,0.0508372665,-31.69090212,4.884674593,-0.3899071633,,98.36278855,0.06325342413,-0.03778956339,-0.6427822053
74.4083,6.790819883,0.04966603082,-31.73192568,4.889019799,-0.3933235814,,98.30241276,-0.07059152065,-0.03986955371,-0.6053458492
74.5167,5.443466818,0.0556127903,-31.84052108,4.851487106,-0.3981215495,,98.2665424,-0.6401096336,-0.04135239047,0.06436487897
74.6083,5.456203223,0.1390868208,-31.8427491,4.791573539,-0.40189555,,98.29325007,-0.6952585786,-0.04506806363,0.5581965885
74.7167,5.985129188,0.1990318615,-31.80661575,4.733531882,-0.4069150434,,98.36497735,-0.3417823188,-0.0468375385,0.7154855
74.825,6.440053683,0.2128602995,-31.77249304,4.711374736,-0.4117794446,,98.43971072,-0.06373645667,-0.04131916456,0.6359320309
74.9167,6.930308499,0.2018907392,-31.73403052,4.714555206,-0.4152570488,,98.490483,0.1475390986,-0.03341210482,0.4342246752
75.0083,7.43784542,0.168845152,-31.69331569,4.735396169,-0.4179216685,,98.51844033,0.3175618695,-0.02339879602,0.1321138096
75.1167,7.824740243,0.1049824981,-31.65897881,4.774553736,-0.4198600548,,98.51342152,0.4069330293,-0.01060085269,-0.2671232421
75.225,7.912813256,0.0466345431,-31.64784653,4.816475932,-0.421048451,,98.46710311,0.3467096608,-0.01137572252,-0.5913705161
75.3083,7.957792286,0.01021163952,-31.64199801,4.844981915,-0.4220247178,,98.40438113,0.2692984903,-0.009852225988,-0.7855398436
75.4167,7.396244767,-0.01726352266,-31.68198102,4.867084883,-0.4230217163,,98.31915573,0.07618169446,-0.01337270247,-0.8524647923
75.525,6.439476343,0.0346869642,-31.7623847,4.843357174,-0.4253506198,,98.25524344,-0.4550196766,-0.02824057488,-0.2280959033
75.6167,6.621788081,0.1074765053,-31.7490017,4.804151041,-0.4277319951,,98.25190398,-0.3466842835,-0.02734901738,0.143298839
75.7083,6.933026737,0.1596166502,-31.72724215,4.781060041,-0.4305024849,,98.27211483,-0.1405470788,-0.03259823452,0.2773456233
75.8167,7.244781259,0.1829619115,-31.70425691,4.776254793,-0.4340193866,,98.30136324,0.04296437335,-0.03092128924,0.237595689
75.925,7.633488888,0.1686368021,-31.67260996,4.788007929,-0.4369771729,,98.31922995,0.1834948368,-0.02210254873,0.05123529325
76.0083,7.979037577,0.1262043174,-31.6429716,4.809297923,-0.4385650119,,98.31324587,0.2873642142,-0.01101245798,-0.2232064641
76.1167,8.095293256,0.04975343832,-31.63069971,4.842356087,-0.4390604855,,98.27072643,0.2920056106,0.002195651313,-0.5739879241
76.225,7.273234642,-0.005413347526,-31.69129493,4.864957201,-0.4385220555,,98.20410497,0.0219141443,0.004628387987,-0.6532502479
76.3083,6.894421239,0.01977788443,-31.72438652,4.848543819,-0.4384384725,,98.16106239,-0.2864753834,-0.00281750001,-0.2669238205
76.4167,7.130686842,0.08013239722,-31.70730116,4.822083435,-0.4393088165,,98.14669382,-0.1615966599,-0.01406348964,-0.02192382308
76.5083,7.368338567,0.1177287997,-31.68972507,4.813239151,-0.4409011392,,98.14743808,-0.01977586374,-0.02012386259,0.01861401626
76.6083,7.554627806,0.1277642696,-31.67530607,4.815961997,-0.4427815374,,98.14708225,0.07683859789,-0.01989521088,-0.04272568964
76.7167,7.868110171,0.1030587737,-31.64900167,4.830473916,-0.4447498567,,98.13279963,0.1801247979,-0.01211117058,-0.2424026239
76.8083,8.082232551,0.05618290566,-31.63097704,4.847799268,-0.4454331302,,98.10460961,0.2388048619,-0.002695902577,-0.4670519181
76.9167,6.908273821,0.008885729671,-31.72279754,4.863085809,-0.4454326404,,98.04766919,-0.1364059945,-0.001008928447,-0.4177264834
77.025,7.039526338,0.05313806996,-31.71288638,4.836677465,-0.4457928895,,98.02314997,-0.2425866888,-0.007716687114,-0.05299359035
77.1083,7.197409414,0.1077845605,-31.70211235,4.819569841,-0.4469372506,,98.02479637,-0.1235161687,-0.01785146201,0.08458058205
77.2167,7.439951536,0.1488023813,-31.64668821,4.813178766,-0.4490284791,,98.03532571,0.01196766507,-0.02291180099,0.1024624553
77.3167,7.707444323,0.1529286819,-31.66202362,4.820365177,-0.4512779599,,98.04111665,0.1314529073,-0.02042236799,-0.01563893545
77.425,7.291999828,0.1187815898,-31.69109993,4.836661082,-0.4530808264,,98.0300324,0.06469367693,-0.0137375073,-0.1377131744
77.5167,6.379562464,0.1425359648,-31.7670804,4.822344571,-0.4544376961,,98.03370732,-0.3788296368,-0.01660251443,0.3255978647
77.6083,6.541511368,0.2454337368,-31.754811,4.788586465,-0.4564616754,,98.0818519,-0.3083744556,-0.03071721259,0.7264017107
77.7167,6.91999732,0.3884192176,-31.72751328,4.764457018,-0.4611588094,,98.18271445,-0.07981798432,-0.0493472867,0.9659700328
77.8083,7.210271664,0.4544845174,-31.70647349,4.76351018,-0.4654760728,,98.26402309,0.06801200911,-0.0528805502,0.9621914426
77.9167,7.542956968,0.4758662618,-31.67940209,4.777892415,-0.4708706458,,98.36139176,0.1977061733,-0.04371715734,0.7974786868
78.025,7.943537361,0.4264856999,-31.64534797,4.805073374,-0.4746657756,,98.43244036,0.3108399482,-0.02311343338,0.4582129507
78.1083,8.014564272,0.3332527922,-31.6365826,4.834472014,-0.4758906061,,98.45998858,0.3073065171,-0.001309469133,0.1204293538
78.2167,8.025054795,0.2024969752,-31.63274886,4.864058343,-0.4747848222,,98.45580635,0.2321088608,0.02254683939,-0.2123755941
78.325,8.026813063,0.08447420132,-31.63042661,4.884374338,-0.4717597772,,98.42256361,0.1715616959,0.03817359559,-0.4660900236
78.4083,8.026706429,-0.01509330542,-31.62891308,4.898245928,-0.4678438167,,98.37146842,0.1289866753,0.04702879865,-0.6611604641
78.5167,7.466497382,-0.1152648568,-31.67254006,4.909076821,-0.4625050674,,98.29068291,-0.0270070552,0.04817857358,-0.7655444646
78.6083,6.260938834,-0.1130395167,-31.76902844,4.89045603,-0.4589189514,,98.2405857,-0.4864431046,0.03377234054,-0.2948590341
78.7167,6.417065894,0.04158115982,-31.75972635,4.830958596,-0.4567059768,,98.24917233,-0.4830238145,0.0004570034132,0.4468476705
78.8083,6.727815755,0.2283792542,-31.73926911,4.796600984,-0.4582380905,,98.30665913,-0.2442191781,-0.03632936685,0.8025576109
78.9167,7.039274355,0.4138282052,-31.71745935,4.782249432,-0.4637967201,,98.40420073,-0.0292239821,-0.06482568611,0.979965155
79.025,7.429307929,0.5242614123,-31.68750109,4.787394589,-0.4712956415,,98.51081948,0.1345546292,-0.07061347466,0.946926938
79.1167,7.774022821,0.5459458081,-31.65823593,4.804730031,-0.4774355213,,98.59048337,0.2514916788,-0.06025775696,0.7473850399
79.2083,7.96286045,0.4981686656,-31.64103242,4.830735129,-0.4821439383,,98.64663798,0.2998752915,-0.0392278352,0.4454601571
79.325,7.674595678,0.3755261308,-31.65948953,4.862411403,-0.4849693189,,98.67917456,0.1814018864,-0.008410671494,0.13159943
79.4167,6.425811522,0.3208622383,-31.7566622,4.859961213,-0.4851736528,,98.69932766,-0.307186109,0.001694095077,0.4471348738
79.525,6.283194817,0.4342312807,-31.7708474,4.810235417,-0.4853885666,,98.78758852,-0.4542644137,-0.01272716911,1.188247666
79.6083,6.612247882,0.6223041376,-31.74817478,4.777928387,-0.4878564007,,98.91313887,-0.2241844054,-0.04427374245,1.544717428
79.7,6.844269062,0.784059213,-31.73234615,4.765637568,-0.4925093558,,99.04907618,-0.06379186493,-0.06771913664,1.715232141
79.8083,7.299576567,0.9438562698,-31.69686489,4.769711262,-0.5013004822,,99.25132905,0.142940695,-0.07969703549,1.700033167
79.9,7.63327811,0.9862413347,-31.67029623,4.785902734,-0.5077616387,,99.3872659,0.2560327759,-0.07245762564,1.520223382
80.0083,7.931436672,0.9380318126,-31.64371887,4.819886178,-0.5148603966,,99.54468393,0.3277467436,-0.04434708779,1.120395262
80.1,7.957848872,0.8411890333,-31.63858444,4.846120011,-0.5175610567,,99.62648274,0.2886272681,-0.01727238567,0.8184509082
80.2167,7.96678391,0.6692831826,-31.6346889,4.875350502,-0.5175191195,,99.70159816,0.2083448662,0.0194799774,0.4535227822
80.3083,7.96885563,0.527827798,-31.63309628,4.892252977,-0.5147408333,,99.73271814,0.1577757855,0.04214117058,0.2086880143
80.4,7.969241951,0.390853747,-31.63166545,4.905027055,-0.5101507749,,99.74277374,0.1189486535,0.05843565389,-0.003773366394
80.5083,7.968350896,0.2292889482,-31.63063732,4.916825237,-0.5025792183,,99.72950222,0.08260749658,0.07085469926,-0.2332285052
80.6,7.96702823,0.1244766317,-31.63087348,4.922962648,-0.4964944612,,99.70471977,0.06334046416,0.07506207225,-0.3725423291
80.7083,7.980410495,-0.008523165065,-31.63725859,4.929456776,-0.4897347577,,99.65636849,0.04808590813,0.04938675058,-0.5272366576
80.8,7.965846173,-0.09810608305,-31.6291122,4.932200167,-0.4853811003,,99.60333226,0.01526080344,0.04559196842,-0.6372411692
80.9083,7.960031416,-0.1868930936,-31.63038051,4.933064115,-0.4807696107,,99.52864987,0.001036066668,0.03917369455,-0.7466587629
81.0167,7.95503987,-0.2673878998,-31.63063119,4.932729709,-0.4768621354,,99.44312348,-0.007570275598,0.03233083747,-0.8363604573
81.1,7.948573003,-0.3163201727,-31.6373436,4.932152895,-0.4732399199,,99.36380159,0.001139232088,0.05460942834,-0.8981130972
81.2167,7.947252694,-0.3843393639,-31.63103929,4.932561927,-0.4674972544,,99.26340144,0.003921547226,0.05023003306,-0.9578471347
81.3,7.944081157,-0.432716751,-31.63156814,4.932826922,-0.4631041172,,99.17387423,0.001294296574,0.04508836797,-0.9978518342
81.4167,7.939768413,-0.4813735892,-31.63166512,4.932821604,-0.4585330631,,99.06386282,-0.001741294842,0.03881635895,-1.03435087
81.5,7.936314731,-0.5133175608,-31.63167268,4.932611298,-0.455479537,,98.97684685,-0.003654948052,0.03402118205,-1.05542866
81.6083,7.931796819,-0.5485298868,-31.63268173,4.932123095,-0.4520969513,,98.86147386,-0.005649298869,0.02801605443,-1.074853685
81.7083,7.927101126,-0.5773600016,-31.63276452,4.931442065,-0.4493475346,,98.74440258,-0.007197560682,0.02236999591,-1.086359878
81.8,7.92342492,-0.5956754213,-31.63308989,4.930813889,-0.4476377599,,98.6537016,-0.008169758175,0.01830305086,-1.090476247
81.9,7.918569853,-0.6148560637,-31.63335102,4.929887933,-0.4459040831,,98.53553106,-0.009192902883,0.01341353008,-1.090413251
82.0083,7.913652497,-0.6294076082,-31.63395457,4.92886163,-0.444677584,,98.41764367,-0.01000608356,0.00894883393,-1.084961512
82.1167,7.909029049,-0.6391042007,-31.63436426,4.927844174,-0.4439573909,,98.30955115,-0.01060145898,0.005184875249,-1.075747622
82.2,7.90474448,-0.6450647197,-31.634734,4.926862669,-0.4436138306,,98.21141069,-0.01107118425,0.002059615666,-1.064217834
82.3083,7.899991417,-0.6487382749,-31.63493737,4.925747907,-0.4435559871,,98.10569202,-0.01148626958,-0.001114528881,-1.048622432
82.4167,7.894805459,-0.6495744751,-31.63562489,4.924498515,-0.443832024,,97.99307801,-0.0118309563,-0.004174374203,-1.028623781
82.5,7.890720765,-0.6481931562,-31.63551136,4.923513831,-0.4442619946,,97.90800881,-0.01205555646,-0.006333757204,-1.011304312
82.6083,7.885406308,-0.6440187212,-31.63596695,4.922209335,-0.445077914,,97.79968022,-0.01229128923,-0.00888807812,-0.9865791558
82.7167,7.411817828,-0.6328937193,-31.67277451,4.9199015,-0.4461905651,,97.69480753,-0.1114700884,-0.01405960261,-0.8859290115
82.8083,6.617403142,-0.551306828,-31.73548528,4.893960479,-0.4479284375,,97.63458996,-0.449152584,-0.02563071947,-0.3178455548
82.9,6.792473104,-0.3637993205,-31.72511576,4.85503146,-0.4511202705,,97.62914884,-0.3503314145,-0.04932465589,0.2158247318
83,7.051740395,-0.09553973088,-31.7094379,4.82904764,-0.4577677249,,97.66993387,-0.1543836377,-0.08605349181,0.5979870717
83.1083,7.323242781,0.1901098833,-31.57029645,4.820848089,-0.4688256998,,97.74707874,-0.005600364278,-0.1175895108,0.8105142087
83.2167,7.588671364,0.4186722743,-31.66964664,4.822434701,-0.4824963875,,97.83865349,0.05639512026,-0.1321749764,0.8508303003
83.3,7.762892101,0.5362559589,-31.65881287,4.831575348,-0.4934427742,,97.90714025,0.1551184962,-0.1299977945,0.7734851208
83.4,7.834008733,0.6085362829,-31.64640644,4.850195065,-0.5068027022,,97.98257626,0.1660595318,-0.1130949665,0.6069120267
83.5083,7.837190251,0.6120695457,-31.64362337,4.866026952,-0.5177707645,,98.04061803,0.122371963,-0.08656585703,0.4557308405
83.6167,7.83514922,0.5786958099,-31.64165315,4.876633419,-0.5252293729,,98.08043124,0.08816550441,-0.06061983646,0.3326191401
83.7,7.832088729,0.5303234976,-31.64111258,4.883688766,-0.5298563042,,98.10671149,0.06444074001,-0.03878387471,0.2336450884
83.8167,7.827549866,0.4620105974,-31.64053651,4.889592483,-0.5329285511,,98.1268593,0.04382778596,-0.01708270433,0.1331729477
83.9083,7.836377662,0.3998444401,-31.59379574,4.892841189,-0.5338555213,,98.13599635,0.007417309077,-0.002112917372,0.0610486023
84.0083,7.816979713,0.3215274552,-31.64202134,4.892153266,-0.5358345175,,98.13884697,-0.009627426392,-0.02831511839,-0.01139057294
84.1,7.808095461,0.2816563945,-31.63158941,4.891781989,-0.5364883711,,98.1362171,0.005288969516,0.01454838845,-0.05511260607
84.2,7.806671171,0.2181522248,-31.64172226,4.892598528,-0.5345136198,,98.1278142,0.007073916038,0.02137358737,-0.1019006754
84.3083,7.800876095,0.1629657358,-31.64232172,4.893183897,-0.5320206262,,98.11493112,0.003077935607,0.02441188517,-0.1371813528
84.4167,7.795111809,0.1191716064,-31.64334938,4.893352532,-0.5295331695,,98.10008099,-0.0001374655067,0.02511345944,-0.1607669027
84.5,7.789626653,0.08496063681,-31.64323171,4.893253152,-0.5272518105,,98.08469011,-0.002436798933,0.02442187172,-0.1757239732
84.6083,7.783680183,0.05398604591,-31.6440756,4.892931355,-0.5248863488,,98.06662674,-0.004380837457,0.0225939431,-0.1856589666
84.7167,7.786115103,0.02738742775,-31.64676965,4.89015343,-0.5225487558,,98.04625086,-0.06621980049,0.01983944539,-0.190495603
84.8,7.758527202,0.009945653239,-31.61645954,4.884862202,-0.5207895521,,98.02876915,-0.0269905384,0.01736123696,-0.1903966013
84.9083,7.763644205,-0.004420524109,-31.64616316,4.883276927,-0.5191078733,,98.0084062,-0.008170649834,0.01359484816,-0.1845623732
85.0167,7.758474596,-0.01278170313,-31.64648397,4.882542695,-0.5179014499,,97.99036822,-0.007372658816,0.01026015498,-0.1751887206
85.1083,7.752934281,-0.01653809661,-31.64717513,4.881857649,-0.5170881141,,97.97477813,-0.007978988796,0.007216016022,-0.1638720159
85.2083,7.746247235,-0.01650342463,-31.64742844,4.880973881,-0.5164805558,,97.95782746,-0.00868101632,0.003763663152,-0.1476997434
85.3,7.741050832,-0.01369021966,-31.64770008,4.880246242,-0.5162642884,,97.94605512,-0.009111284769,0.001210383163,-0.1335371405
85.4083,7.734322523,-0.00670360444,-31.64822605,4.879255324,-0.5162890427,,97.93260257,-0.009518378869,-0.001845794445,-0.113293568
85.5,7.728595038,0.001803624744,-31.6484876,4.878386324,-0.5165595203,,97.92299361,-0.009775016992,-0.004226624986,-0.09485031524
85.6167,7.721249458,0.01553931703,-31.64906739,4.877251362,-0.5172030937,,97.91327996,-0.01001495832,-0.006930817531,-0.07002706411
85.7,7.715480003,0.02832986958,-31.64980514,4.876343732,-0.5179198246,,97.90771861,-0.01012291084,-0.008828925638,-0.04971950213
85.8083,7.708592642,0.04532482852,-31.65012808,4.875259716,-0.5189758554,,97.90357871,-0.0102178797,-0.0107797251,-0.02507461484
85.9,7.703336257,0.0595909624,-31.65058359,4.874420654,-0.5199229907,,97.90222563,-0.01025956378,-0.01207665482,-0.005795951154
86.0083,7.696438535,0.0795389048,-31.65114943,4.873325048,-0.5213064548,,97.90288039,-0.01029590909,-0.013536343,0.01949611543
86.1083,7.689483832,0.1007235966,-31.65154717,4.872227761,-0.5228355688,,97.90628085,-0.01029633679,-0.01472713048,0.04486648289
86.2,7.684174207,0.1176004549,-31.65214324,4.871384745,-0.5240930132,,97.9107654,-0.01027887827,-0.01551152425,0.06432547518
86.3,7.684298308,0.1331730022,-31.64624524,4.870101529,-0.52851557,,97.9189361,-0.03024376449,-0.05984480417,0.08803895609
86.4167,7.671044852,0.1601165491,-31.65307554,4.866141284,-0.5351320482,,97.92969041,-0.04011748422,-0.06217619159,0.1118352682
86.5083,7.661085688,0.1891708463,-31.65912021,4.863283387,-0.5388234868,,97.94085792,-0.0173048232,-0.0202896366,0.1332723677
86.6,7.657862486,0.208526902,-31.6546035,4.862095597,-0.5406313483,,97.95392797,-0.01049393451,-0.01941529708,0.153263421
86.7167,7.650730713,0.2341707248,-31.65485799,4.860961612,-0.5428732415,,97.973184,-0.009617125409,-0.01899484244,0.1781171256
86.8,7.644766656,0.2543223089,-31.65542671,4.860097369,-0.5445998019,,97.99032488,-0.009610347777,-0.0186554091,0.1971289399
86.9083,7.638211402,0.2761577611,-31.65581388,4.85915335,-0.5464473052,,98.01098687,-0.009632680049,-0.01826074929,0.2173023641
87.0167,7.631042993,0.299607866,-31.65616586,4.858128336,-0.548405133,,98.03561295,-0.009643256426,-0.01784244561,0.2384409772
87.1,7.624992502,0.3192162536,-31.65665894,4.857261068,-0.5500230747,,98.05821225,-0.009633439653,-0.01743348916,0.2557153949
87.2083,7.618363599,0.3403225433,-31.65734892,4.856317521,-0.5517449084,,98.08464256,-0.009600461814,-0.01696312911,0.2738905061
87.3167,7.611140636,0.362734452,-31.6577956,4.855299943,-0.553556139,,98.11528707,-0.009550468596,-0.01641752247,0.2927636282
87.4083,7.605040493,0.3813179638,-31.65848654,4.85444386,-0.555039862,,98.14278402,-0.009501796836,-0.0159111773,0.3080516496
87.5167,7.59779187,0.402749048,-31.65894068,4.853436333,-0.5567290919,,98.17704856,-0.009488064412,-0.01521590956,0.3252950937
87.6083,7.591024672,0.4219070063,-31.6594454,4.852509781,-0.5582228889,,98.21029744,-0.009397943675,-0.01459982308,0.3404047532
87.7,7.585423138,0.4374250337,-31.66005669,4.851746221,-0.559418562,,98.23913523,-0.009315158975,-0.01404943862,0.3523997067
87.8083,7.577395888,0.4570961509,-31.66014491,4.850760869,-0.560901046,,98.27808142,-0.009291685548,-0.01314940188,0.3671825408
87.9167,7.593443416,0.4760568844,-31.67216771,4.847369856,-0.5622170985,,98.31852505,-0.103732108,-0.01198485275,0.3782851616
88,7.551051502,0.4906597008,-31.68343284,4.839525885,-0.5631214199,,98.35364629,-0.03669977599,-0.01139740082,0.3893398404
88.1083,7.555381284,0.5079721893,-31.662795,4.837435978,-0.5643398161,,98.3964877,-0.01001139946,-0.01074774504,0.4018478831
88.2,7.552252297,0.5202912181,-31.66318599,4.836723308,-0.5652035656,,98.43032398,-0.007934822563,-0.009914483644,0.4105546117
88.3083,7.547485328,0.5355193262,-31.66359417,4.835901235,-0.5662266789,,98.47534996,-0.007741742431,-0.008898177545,0.4208755852
88.4167,7.54309619,0.5497832468,-31.66364196,4.835083205,-0.5671432874,,98.52143838,-0.007775490102,-0.007957588781,0.4300778238
88.5083,7.53967604,0.5611108555,-31.6635423,4.834389453,-0.5678395785,,98.56117607,-0.007764164459,-0.007170167635,0.4369868374
88.6,7.536556998,0.5717462516,-31.66381862,4.833698076,-0.5684639332,,98.60151372,-0.007723048799,-0.006379026493,0.4430932262
88.7,7.533651023,0.5815773813,-31.66399451,4.833011107,-0.5690153937,,98.642378,-0.007664891525,-0.005582860669,0.4484035314
88.8083,7.529987489,0.5936628821,-31.66425467,4.832084311,-0.5696505275,,98.69881987,-0.007571648476,-0.004509037988,0.4543836408
88.9,7.529823105,0.5983451766,-31.66326023,4.83094142,-0.5714089613,,98.73676668,-0.02104858614,-0.02685296231,0.4562767993
89.0083,7.530175813,0.6108347393,-31.6280265,4.827069182,-0.5737331296,,98.78631598,-0.06630760802,-0.00471093169,0.4575914774
89.1167,7.516606009,0.6151149883,-31.66274346,4.822359915,-0.5738292418,,98.83606828,-0.01643304122,-0.001697190231,0.460700587
89.2,7.529874247,0.6218078907,-31.67242065,4.821152309,-0.5739949828,,98.87452094,-0.02864394968,-0.001711066211,0.4611280713
89.3083,7.513791716,0.6245443484,-31.67339636,4.818135126,-0.5731794056,,98.92453862,-0.01430803582,6.569761189e-05,0.4617844796
89.4167,7.514594535,0.629880164,-31.66642706,4.817169045,-0.5732103536,,98.9746006,-0.006436530202,0.0001893841969,0.4617887989
89.5,7.512893279,0.6319039666,-31.66659286,4.816620539,-0.5731472969,,99.01692503,-0.006157444087,0.001258668971,0.4610174744
89.6167,7.510476373,0.6332717678,-31.66615349,4.815962708,-0.5729489348,,99.06681728,-0.006462789092,0.002470982593,0.4593431266
89.7,7.515400771,0.6160769441,-31.61987313,4.815058396,-0.5739765108,,99.10498851,-0.03217698035,-0.06344391628,0.4538088009
89.8083,7.521025708,0.6240982181,-31.471201,4.814405087,-0.5748015819,,99.15431447,0.03908733348,0.01329921849,0.4561965535
89.9083,7.506562703,0.6318893806,-31.66799894,4.815279254,-0.5735612952,,99.20347934,-0.008019193291,0.01052299591,0.4509825652
90.0167,7.357832154,0.6268892524,-31.6835628,4.813951435,-0.5717854378,,99.2484137,-0.02793995779,0.01035200845,0.4384872535
90.1,6.452961683,0.6092555747,-31.74070037,4.800259413,-0.5708468684,,99.27822309,-0.3206653096,0.009513754565,0.1110722084
90.2083,6.585500694,0.5169446578,-31.68873756,4.766284301,-0.5710796576,,99.26678667,-0.3022540686,-0.04393485999,-0.3496436689
90.3083,6.740855413,0.3939084112,-31.73238745,4.740147467,-0.5763651537,,99.210676,-0.1685994991,-0.04617468056,-0.690669601
90.4,6.915654054,0.2657996925,-31.72808094,4.731642513,-0.5761540288,,99.14681714,-0.0314384431,0.02107121915,-0.8407907455
90.5083,7.112579565,0.08927185119,-31.71215824,4.734031839,-0.5731014477,,99.05181441,0.06848990315,0.03607192514,-0.8940078701
90.6167,7.341478171,-0.06325055444,-31.69484295,4.744188307,-0.5686326791,,98.95761105,0.125802872,0.04633743847,-0.8133354339
90.7,7.445317956,-0.1517972049,-31.68501953,4.75594518,-0.564576165,,98.89523284,0.1466995703,0.05110394689,-0.6627178745
90.8,7.450855716,-0.223396376,-31.68043417,4.769916339,-0.5589673961,,98.83388816,0.1045671917,0.05128300364,-0.4546864692
90.9083,7.448500175,-0.2522206076,-31.67767393,4.779195909,-0.5536447581,,98.79484671,0.06540345917,0.04591811909,-0.2525621195
91.0167,7.446195548,-0.2482467192,-31.67574119,4.784528765,-0.549377938,,98.77778503,0.0402704795,0.03854275233,-0.0765423388
91.1,7.45535222,-0.2268571488,-31.65418576,4.787277191,-0.5464213124,,98.77660587,0.01589088845,0.03148708221,0.05951517817
91.2083,7.442687931,-0.1771014216,-31.67525893,4.788938783,-0.5432565742,,98.7930778,0.0127048268,0.02223115566,0.2306640375
91.3,7.414014262,-0.1522357937,-31.53771977,4.785779688,-0.5400884413,,98.81639589,-0.055351179,0.02238244215,0.3361552797
91.4,7.459606824,-0.06652204004,-31.53163831,4.783165448,-0.5389170741,,98.85896876,-0.01822826407,0.006661188603,0.4544283702
91.5083,7.437618233,0.008217110261,-31.68969773,4.779351122,-0.5376927962,,98.91312221,-0.01950878486,0.003054943818,0.5485343992
91.6167,7.443207245,0.07880549509,-31.67436931,4.778215752,-0.537646754,,98.97121881,-0.00724818524,-0.001293898331,0.6150804308
91.7,7.444602902,0.1338286929,-31.67434041,4.777670683,-0.537811991,,99.02410137,-0.006601966606,-0.002670890212,0.6553906267
