Time,Acceleration_X,Acceleration_Y,Acceleration_Z,Pitch_degree,Roll_degree,Yaw_degree,Heading_degree,Pitch_rate,Roll_rate,Yaw_rate
1,2.232156473,-0.02756304831,-32.1007499,3.924792997,0.3473427528,,73.95863155,0,0,0
1,2.232156473,-0.02756304831,-32.1007499,3.924792997,0.3473427528,,73.95863155,0,0,0
1,2.232156473,-0.02756304831,-32.1007499,3.924792997,0.3473427528,,73.95863155,0,0,0
1,2.232156473,-0.02756304831,-32.1007499,3.924792997,0.3473427528,,73.95863155,0,0,0
1,2.232156473,-0.02756304831,-32.1007499,3.924792997,0.3473427528,,73.95863155,0,0,0
1,2.232156473,-0.02756304831,-32.1007499,3.924792997,0.3473427528,,73.95863155,0,0,0
1,2.232156473,-0.02756304831,-32.1007499,3.924792997,0.3473427528,,73.95863155,0,0,0
1,2.232156473,-0.02756304831,-32.1007499,3.924792997,0.3473427528,,73.95863155,0,0,0
1,2.232156473,-0.02756304831,-32.1007499,3.924792997,0.3473427528,,73.95863155,0,0,0
1,2.232156473,-0.02756304831,-32.1007499,3.924792997,0.3473427528,,73.95863155,0,0,0
2,2.237103369,-0.3145315999,-32.10050504,3.932862998,0.375088638,,73.96084637,0.001044810158,0.00416780675,0.0003321538736
2,2.237103369,-0.3145315999,-32.10050504,3.932862998,0.375088638,,73.96084637,0.001044810158,0.00416780675,0.0003321538736
2,2.237103369,-0.3145315999,-32.10050504,3.932862998,0.375088638,,73.96084637,0.001044810158,0.00416780675,0.0003321538736
2,2.237103369,-0.3145315999,-32.10050504,3.932862998,0.375088638,,73.96084637,0.001044810158,0.00416780675,0.0003321538736
2,2.237103369,-0.3145315999,-32.10050504,3.932862998,0.375088638,,73.96084637,0.001044810158,0.00416780675,0.0003321538736
2,2.237103369,-0.3145315999,-32.10050504,3.932862998,0.375088638,,73.96084637,0.001044810158,0.00416780675,0.0003321538736
2,2.237103369,-0.3145315999,-32.10050504,3.932862998,0.375088638,,73.96084637,0.001044810158,0.00416780675,0.0003321538736
2,2.237103369,-0.3145315999,-32.10050504,3.932862998,0.375088638,,73.96084637,0.001044810158,0.00416780675,0.0003321538736
2,2.237103369,-0.3145315999,-32.10050504,3.932862998,0.375088638,,73.96084637,0.001044810158,0.00416780675,0.0003321538736
2,2.237103369,-0.3145315999,-32.10050504,3.932862998,0.375088638,,73.96084637,0.001044810158,0.00416780675,0.0003321538736
3,2.236481056,-0.3129552697,-32.10033994,3.932526834,0.3745499081,,73.96080239,-6.41068244e-05,-0.0001117881811,-9.097022376e-06
3,2.236481056,-0.3129552697,-32.10033994,3.932526834,0.3745499081,,73.96080239,-6.41068244e-05,-0.0001117881811,-9.097022376e-06
3,2.236481056,-0.3129552697,-32.10033994,3.932526834,0.3745499081,,73.96080239,-6.41068244e-05,-0.0001117881811,-9.097022376e-06
3,2.236481056,-0.3129552697,-32.10033994,3.932526834,0.3745499081,,73.96080239,-6.41068244e-05,-0.0001117881811,-9.097022376e-06
3,2.236481056,-0.3129552697,-32.10033994,3.932526834,0.3745499081,,73.96080239,-6.41068244e-05,-0.0001117881811,-9.097022376e-06
3,2.236481056,-0.3129552697,-32.10033994,3.932526834,0.3745499081,,73.96080239,-6.41068244e-05,-0.0001117881811,-9.097022376e-06
3,2.236481056,-0.3129552697,-32.10033994,3.932526834,0.3745499081,,73.96080239,-6.41068244e-05,-0.0001117881811,-9.097022376e-06
3,2.236481056,-0.3129552697,-32.10033994,3.932526834,0.3745499081,,73.96080239,-6.41068244e-05,-0.0001117881811,-9.097022376e-06
3,2.236481056,-0.3129552697,-32.10033994,3.932526834,0.3745499081,,73.96080239,-6.41068244e-05,-0.0001117881811,-9.097022376e-06
3,2.236481056,-0.3129552697,-32.10033994,3.932526834,0.3745499081,,73.96080239,-6.41068244e-05,-0.0001117881811,-9.097022376e-06
3.33333,2.236352193,-0.312107826,-32.10034647,3.932269352,0.3730644308,,73.96068462,-6.145250078e-05,-0.0002540386663,-2.023074159e-05
3.33333,2.236352193,-0.312107826,-32.10034647,3.932269352,0.3730644308,,73.96068462,-6.145250078e-05,-0.0002540386663,-2.023074159e-05
3.33333,2.236352193,-0.312107826,-32.10034647,3.932269352,0.3730644308,,73.96068462,-6.145250078e-05,-0.0002540386663,-2.023074159e-05
3.40833,2.236336784,-0.3118031488,-32.10035972,3.932248321,0.3727664309,,73.96066115,-4.277249474e-05,-0.000620874072,-4.889108809e-05
3.53333,2.236433653,-0.3120237349,-32.10032293,3.932235224,0.3726743708,,73.96065386,-0.0001623323959,-0.0007447816894,-5.922246563e-05
3.60833,2.236405312,-0.3119590106,-32.10030657,3.932208361,0.3725762228,,73.96064603,-0.0002880479893,-0.0008795433375,-7.043315324e-05
3.73333,2.236357186,-0.3118826228,-32.10036074,3.932170147,0.372468518,,73.96063739,-0.0003690155756,-0.0009790687817,-7.865307082e-05
3.825,2.236311635,-0.3118023846,-32.10036463,3.932131021,0.3723675253,,73.96062927,-0.0004123065736,-0.001044500725,-8.400575869e-05
3.91667,2.236265991,-0.3117247462,-32.10037217,3.932088827,0.3722612647,,73.96062073,-0.0004302668846,-0.001088885832,-8.757685967e-05
4.00833,2.236232341,-0.3116683618,-32.10038106,3.932053003,0.3721701631,,73.9606134,-0.000429055399,-0.001111602904,-8.935213929e-05
4.18333,2.236197644,-0.3115930601,-32.10037752,3.932010639,0.3720582089,,73.9606044,-0.0004156173251,-0.001134372089,-9.106460676e-05
4.21667,2.236148017,-0.3113169446,-32.10037982,3.931968722,0.3719353427,,73.96059456,-0.0004059811922,-0.001196362251,-9.587379394e-05
4.30833,2.236133891,-0.3114299303,-32.10035441,3.931930284,0.3718195972,,73.96058529,-0.0003600969051,-0.001137883713,-9.105438371e-05
4.40833,2.236113146,-0.3113842158,-32.10038331,3.931896318,0.3717067664,,73.96057627,-0.000316380896,-0.001130370782,-9.023401447e-05
4.50833,2.236096675,-0.3113229199,-32.1003844,3.931866634,0.3715938455,,73.96056726,-0.0002740372516,-0.001135921702,-9.044879159e-05
4.61667,2.2360793,-0.3111984791,-32.10038903,3.931839219,0.3714695437,,73.96055738,-0.0002283847212,-0.001158388934,-9.197242609e-05
4.7,2.236068257,-0.3111719822,-32.10039249,3.9318216,0.3713739928,,73.9605498,-0.000190683647,-0.00114320833,-9.058818707e-05
4.8,2.236059081,-0.3111313285,-32.10038607,3.931804634,0.3712604005,,73.96054081,-0.0001446503667,-0.001138325,-8.996469779e-05
4.90833,2.236052783,-0.3110630136,-32.10039169,3.931794033,0.3711655095,,73.96053331,-0.0001056822371,-0.001142906534,-9.01229846e-05
5.01667,2.236047834,-0.3109601022,-32.10036925,3.931784053,0.3710104814,,73.96052111,-4.111448105e-05,-0.00115086201,-9.041572786e-05
5.19167,2.236045135,-0.3109471312,-32.10037297,3.931782321,0.3709438304,,73.96051588,-1.378068041e-05,-0.001141455256,-8.953669967e-05
5.4,2.236076957,-0.3105874529,-32.10038357,3.931787688,0.3707621438,,73.96050167,6.962241542e-05,-0.001173906271,-9.164238797e-05
5.4,2.236076957,-0.3105874529,-32.10038357,3.931787688,0.3707621438,,73.96050167,6.962241542e-05,-0.001173906271,-9.164238797e-05
5.4,2.236076957,-0.3105874529,-32.10038357,3.931787688,0.3707621438,,73.96050167,6.962241542e-05,-0.001173906271,-9.164238797e-05
5.575,2.236128344,-0.3105250172,-32.1003804,3.931814699,0.3704606906,,73.96047818,9.980919524e-05,-0.0009227614358,-7.180316639e-05
5.60833,2.236133355,-0.310420474,-32.10037667,3.931825873,0.3703341952,,73.96046833,6.620192465e-05,-0.0008496826393,-6.624864159e-05
5.7,2.236127357,-0.3105457226,-32.10037815,3.931831612,0.3702542355,,73.96046209,4.884869123e-05,-0.0007694326587,-6.004952806e-05
5.8,2.23612161,-0.3105299594,-32.10037634,3.931836065,0.3701780473,,73.96045614,4.119579953e-05,-0.000762352727,-5.953476021e-05
5.91667,2.23611683,-0.3104906771,-32.10037623,3.931840823,0.3700892343,,73.9604492,4.224856676e-05,-0.0007683514006,-5.999956283e-05
6.00833,2.236114749,-0.3104545511,-32.10037484,3.931844925,0.3700187075,,73.9604437,4.886410866e-05,-0.0007786014291,-6.076860381e-05
6.10833,2.236113121,-0.3104166106,-32.10037381,3.931850293,0.3699404142,,73.96043759,6.06813914e-05,-0.0007973963048,-6.218413083e-05
6.21667,2.236117488,-0.3103487703,-32.10037524,3.931857628,0.369853421,,73.96043081,7.678811993e-05,-0.0008149882163,-6.34749051e-05
6.31667,2.236119475,-0.3103174101,-32.10037364,3.931866028,0.3697715645,,73.96042444,9.341677959e-05,-0.0008309952801,-6.464389204e-05
6.4,2.236120659,-0.3102863975,-32.10037454,3.931874377,0.3697017636,,73.96041901,0.0001094099022,-0.0008530313889,-6.629330389e-05
6.5,2.23612871,-0.310232031,-32.10037215,3.931886165,0.3696159699,,73.96041235,0.0001286656454,-0.0008716489546,-6.764751383e-05
6.6,2.236135508,-0.3101850259,-32.10037059,3.93189994,0.3695280094,,73.96040552,0.0001492944163,-0.0008961816773,-6.946342072e-05
6.70833,2.236142954,-0.3101563584,-32.10037983,3.931915868,0.3694372143,,73.96039849,0.0001706570955,-0.0009173655375,-7.101388427e-05
6.80833,2.236155027,-0.3100763153,-32.10036867,3.931935603,0.3693359299,,73.96039065,0.000195329519,-0.0009525262066,-7.364112715e-05
6.90833,2.236165424,-0.3100259349,-32.10036741,3.931956131,0.3692397321,,73.96038322,0.0002180070214,-0.0009811434084,-7.576672854e-05
7.01667,2.236178987,-0.3099615611,-32.10036573,3.931981042,0.3691318189,,73.96037489,0.0002440728184,-0.001015493814,-7.83243973e-05
7.1,2.236186302,-0.3099260637,-32.10037374,3.932002104,0.3690464143,,73.96036831,0.0002649109937,-0.001045691358,-8.058738038e-05
7.21667,2.23620354,-0.3098514858,-32.10037445,3.932034526,0.3689226895,,73.96035878,0.0002945312254,-0.001085852995,-8.358396093e-05
7.3,2.236222225,-0.3097993965,-32.10036172,3.932057148,0.3688410033,,73.96035249,0.0003117169878,-0.001103358592,-8.486316986e-05
7.41667,2.2362459,-0.3097109488,-32.10035542,3.932095175,0.3687098913,,73.96034241,0.0003423095945,-0.001147186885,-8.81401542e-05
7.51667,2.236264207,-0.3096572351,-32.1003574,3.932133612,0.3685840494,,73.96033275,0.0003695193893,-0.001182058459,-9.073329178e-05
7.6,2.236274349,-0.3096160007,-32.10037086,3.932165187,0.3684845683,,73.96032512,0.0003926460926,-0.001218952178,-9.350841287e-05
7.7,2.236297663,-0.3095515451,-32.10035462,3.932195224,0.3683927174,,73.96031807,0.0004118183098,-0.001242355658,-9.524129879e-05
7.80833,2.236336951,-0.3094281348,-32.10034601,3.932253009,0.3682220117,,73.96030499,0.0004514542693,-0.001297382522,-9.93497572e-05
7.90833,2.236355216,-0.3093865318,-32.10034917,3.93229916,0.3680914069,,73.96029499,0.0004760063407,-0.001330737306,-0.0001018382005
8.025,2.236411739,-0.3093086896,-32.10032404,3.932351232,0.3679425501,,73.9602836,0.0004796953762,-0.001442533554,-0.0001105832486
8.10833,2.236386457,-0.3092104994,-32.10037002,3.93239734,0.3678121032,,73.96027361,0.0005314121596,-0.001420584767,-0.0001085991551
8.20833,2.23643465,-0.309150147,-32.10034434,3.932452154,0.3676695369,,73.96026272,0.0005681048779,-0.001449486382,-0.0001106722103
8.30833,2.236469894,-0.3090727453,-32.10034053,3.932510362,0.3675229603,,73.96025153,0.000600051077,-0.001497086723,-0.0001142391783
8.41667,2.236406849,-0.308993692,-32.10044503,3.932577251,0.367358423,,73.96023898,0.0006639408505,-0.00155861119,-0.0001187357456
8.51667,2.236523489,-0.3089035046,-32.10033166,3.932641374,0.3672148628,,73.96022806,0.0007329767605,-0.001593564539,-0.0001211157417
8.625,2.236695708,-0.3087904136,-32.10010281,3.932722819,0.3670394922,,73.96021474,0.0007574485296,-0.001648120768,-0.0001252677891
8.70833,2.236670781,-0.3087139709,-32.10032734,3.932783974,0.3669005687,,73.96020416,0.0007176306509,-0.001690111327,-0.0001287679884
8.80833,2.236676614,-0.3086113899,-32.10032617,3.932861882,0.3667150032,,73.96019002,0.0007279242092,-0.001741783803,-0.0001327675019
8.90833,2.236690693,-0.3085312584,-32.10035738,3.932929839,0.3665532114,,73.96017769,0.0007617324886,-0.001799296157,-0.0001371062844
9.01667,2.23671773,-0.3084067921,-32.10031771,3.933017793,0.3663564786,,73.96016272,0.0008671346785,-0.001840832895,-0.0001398148583
9.11667,2.236830116,-0.308297136,-32.10031466,3.93311009,0.3661544581,,73.96014736,0.0008484477645,-0.001895591305,-0.0001442078627
9.2,2.236760627,-0.30818699,-32.10052609,3.933181409,0.3659949124,,73.96013522,0.0008800206673,-0.001945472396,-0.0001479563264
9.30833,2.236935952,-0.3081105144,-32.10035451,3.933281963,0.365782249,,73.96011907,0.0009461735207,-0.002005906502,-0.0001523599646
9.40833,2.236967297,-0.3079784411,-32.10030573,3.933376149,0.3655804628,,73.96010374,0.0009476068365,-0.002049984763,-0.0001558070023
9.51667,2.23699145,-0.3079258043,-32.10037466,3.933472206,0.3653731844,,73.96008799,0.0009785794828,-0.002095631099,-0.0001592328035
9.61667,2.23706366,-0.3077279075,-32.10029734,3.933580635,0.3651423554,,73.96007045,0.001025607713,-0.002164600141,-0.0001643960804
9.7,2.23711891,-0.3075972451,-32.10028298,3.933667471,0.3649603181,,73.96005663,0.001064492258,-0.002217029671,-0.0001683078982
9.80833,2.237185729,-0.3074593456,-32.10027714,3.933784985,0.3647179267,,73.96003823,0.001112620051,-0.002277377465,-0.000172794553
9.90833,2.237367675,-0.3069884847,-32.10027107,3.933896037,0.3644958973,,73.9600214,0.001073333398,-0.0020504248,-0.0001552115084
10.0167,2.237478052,-0.3068962181,-32.1002904,3.933996665,0.3643103827,,73.96000738,0.0009201251259,-0.001634672053,-0.0001234059036
10.1167,2.23750704,-0.306908947,-32.10029292,3.934087758,0.3641517773,,73.95999541,0.0007536551668,-0.0012872005,-9.702346587e-05
10.2167,2.237512115,-0.3069174348,-32.10029777,3.934157291,0.3640341948,,73.95998655,0.0006344898704,-0.001062158426,-7.999804897e-05
10.3167,2.2375147,-0.3069154134,-32.1003018,3.934216632,0.3639357841,,73.95997914,0.0005521603843,-0.000905849495,-6.816880028e-05
10.4167,2.237520164,-0.3069058341,-32.10030466,3.93426919,0.3638506108,,73.95997274,0.0005001345477,-0.0007989670347,-6.00578892e-05
10.5,2.237531458,-0.3068854314,-32.10030634,3.934309829,0.3637864819,,73.95996792,0.0004756690548,-0.0007392190959,-5.549955389e-05
10.6,2.237541445,-0.3068741134,-32.10030636,3.934356451,0.3637153276,,73.95996258,0.0004592894355,-0.0006878771862,-5.15592165e-05
10.7,2.237557278,-0.3068519289,-32.10030653,3.934402076,0.3636482332,,73.95995756,0.0004559569407,-0.000658058885,-4.923861009e-05
10.8,2.237576183,-0.3068262628,-32.10030522,3.9344478,0.3635834284,,73.95995271,0.0004615243502,-0.0006425650608,-4.799513215e-05
10.9167,2.237595454,-0.3068121629,-32.10030459,3.934502264,0.3635091029,,73.95994716,0.0004740835539,-0.0006328343357,-4.717056288e-05
11.0167,2.237624507,-0.3067638199,-32.10030273,3.934550441,0.3634455891,,73.95994243,0.0004924378382,-0.0006405206145,-4.767544404e-05
11.1083,2.237650463,-0.3067308738,-32.1003012,3.934600527,0.3633813906,,73.95993766,0.0005129453013,-0.0006490862448,-4.824130248e-05
11.2083,2.237674984,-0.3067009754,-32.10029938,3.934648258,0.3633217687,,73.95993323,0.0005334517559,-0.0006599484907,-4.898724372e-05
11.3,2.23770381,-0.3066647224,-32.1002974,3.934702667,0.36325532,,73.9599283,0.0005588422623,-0.0006750863117,-5.004332055e-05
11.4,2.237731035,-0.3066321889,-32.10029524,3.934754759,0.3631931404,,73.95992369,0.000583272765,-0.000690369432,-5.111570297e-05
11.5167,2.237769954,-0.3065871811,-32.1002918,3.934824509,0.363111783,,73.95991768,0.0006169461976,-0.0007112038137,-5.257520614e-05
11.6083,2.237805284,-0.3065327874,-32.10028961,3.934882521,0.3630454527,,73.95991277,0.0006513515224,-0.000735137617,-5.427506414e-05
11.7,2.237831281,-0.306514667,-32.1002884,3.934943153,0.3629779562,,73.9599078,0.0006777986696,-0.0007478476629,-5.513559725e-05
11.8,2.237867787,-0.306470856,-32.10028507,3.935012444,0.3629024126,,73.95990223,0.0007138129021,-0.0007700733395,-5.669264401e-05
11.9,2.237905658,-0.3064274829,-32.10028289,3.935085498,0.3628246486,,73.95989651,0.0007535256572,-0.0007925895301,-5.825354494e-05
12.0083,2.237945313,-0.306382639,-32.10027884,3.935162692,0.3627446176,,73.95989063,0.0007971800022,-0.0008155920291,-5.983224497e-05
12.1083,2.237993487,-0.3063294491,-32.10027545,3.935251727,0.3626550106,,73.95988407,0.000850748465,-0.000841078176,-6.155453081e-05
12.2167,2.238026794,-0.3062871547,-32.10027973,3.935346613,0.3625628422,,73.95987733,0.0009120229354,-0.000870548784,-6.35548822e-05
12.3167,2.238012421,-0.3062308634,-32.10029631,3.93544106,0.3624752375,,73.95987095,0.00101217272,-0.0008903419093,-6.458399737e-05
12.4,2.238179943,-0.3061750509,-32.10025133,3.935527487,0.3624003139,,73.95986552,0.001051445321,-0.0009133446916,-6.618714972e-05
12.5083,2.238190983,-0.3061374505,-32.10026193,3.935634418,0.3623083888,,73.95985886,0.001102743273,-0.000934997039,-6.761975718e-05
12.6,2.238227905,-0.3060866195,-32.10025955,3.93574842,0.3622138777,,73.95985204,0.001188910231,-0.0009597481994,-6.911634063e-05
12.7,2.238278209,-0.3060308167,-32.10025416,3.935871961,0.3621170414,,73.95984509,0.001299639418,-0.0009857878188,-7.058634026e-05
12.8,2.238379393,-0.3059699379,-32.10002202,3.936009717,0.3620175936,,73.959838,0.0014834041,-0.001011693861,-7.166750575e-05
12.9,2.238405227,-0.3059174214,-32.10024558,3.936162948,0.3619155608,,73.95983079,0.001613435265,-0.001038246871,-7.307870374e-05
13.0083,2.238347251,-0.3058525517,-32.10046513,3.936348531,0.3618016804,,73.95982282,0.001855795244,-0.001068366886,-7.418802045e-05
13.1167,2.238465823,-0.3057960328,-32.10026322,3.936566408,0.3616848962,,73.95981479,0.002192806419,-0.00110030762,-7.495345857e-05
13.2,2.238505981,-0.3057369843,-32.10023652,3.93673925,0.361602183,,73.95980919,0.002473430646,-0.001115153124,-7.466333355e-05
13.3083,2.238456697,-0.3056678262,-32.10023792,3.937035756,0.3614800151,,73.95980114,0.003093284401,-0.00114342048,-7.367127785e-05
13.4083,2.238258702,-0.3055967451,-32.10024967,3.937417207,0.3613547913,,73.9597933,0.004116259524,-0.001171552259,-7.05791978e-05
13.5167,2.237704934,-0.3055017467,-32.10002697,3.937946089,0.3612266276,,73.95978598,0.006055456973,-0.001202700614,-6.297362091e-05
13.6,2.236258945,-0.3054725488,-32.10039679,3.938470406,0.3611363249,,73.95978162,0.00853078681,-0.00121643718,-5.122102993e-05
13.7,2.229388512,-0.3053875269,-32.10099547,3.939760078,0.3610035965,,73.95977789,0.01774146602,-0.001231933415,-4.680237969e-06
13.8,2.24703282,-0.3052716658,-32.10003768,3.94224221,0.3608829697,,73.95978129,0.02831741351,-0.001150026122,5.656952788e-05
13.9,2.268943269,-0.3050783404,-32.09867416,3.943925837,0.3607765529,,73.95978166,0.0006350296597,-0.0009560717682,-7.183761129e-05
14,2.254090433,-0.3050505562,-32.09984256,3.942946397,0.360690585,,73.95976982,-0.01920671606,-0.000752603107,-0.0001587731956
14.1083,2.242193707,-0.3050542892,-32.10053278,3.940457007,0.3606181159,,73.95975122,-0.0252554483,-0.0005824978909,-0.000176768371
14.2,2.236906308,-0.304963655,-32.09978854,3.938384997,0.3605742518,,73.95973703,-0.02379516432,-0.0004542597579,-0.0001591059009
14.3,2.234523225,-0.3050520222,-32.10022603,3.936019642,0.3605310203,,73.95972136,-0.01936759249,-0.0003523687526,-0.0001281216573
14.4083,2.233899242,-0.3050617189,-32.10013586,3.934151117,0.3604941606,,73.95970878,-0.01488999987,-0.0003284565592,-0.0001030048679
14.5083,2.233838514,-0.3050801927,-32.09995214,3.932826685,0.3604618482,,73.95969938,-0.01143430985,-0.0003238704303,-8.471006026e-05
14.6083,2.233956525,-0.3051587368,-32.10003956,3.931812158,0.3604281916,,73.95969148,-0.00876706305,-0.0003660067272,-7.416448954e-05
14.7167,2.234057145,-0.3052135474,-32.10028081,3.930978107,0.3603908621,,73.95968422,-0.006582691374,-0.0003582511094,-6.222393724e-05
14.8083,2.234099979,-0.3050257726,-32.10012647,3.930395259,0.3603553963,,73.95967842,-0.005052385567,-0.0003500846316,-5.364046784e-05
14.9167,2.234136367,-0.305018539,-32.10018944,3.929943773,0.3603201063,,73.95967331,-0.003938033981,-0.0003597183661,-4.860946878e-05
15.0167,2.234154799,-0.3049985358,-32.10020044,3.929590884,0.3602835882,,73.95966862,-0.003090940191,-0.0003744304824,-4.536658608e-05
15.1,2.234163429,-0.3049820049,-32.10022759,3.929376378,0.3602552479,,73.95966529,-0.002593297363,-0.0003848973126,-4.360328299e-05
15.2083,2.234162363,-0.3049560313,-32.1002583,3.929124837,0.3602128506,,73.95966066,-0.002033682453,-0.0003987648547,-4.178444968e-05
15.3083,2.234182983,-0.3049424677,-32.10052318,3.92894009,0.3601722377,,73.95965652,-0.001645427009,-0.0004132109881,-4.090442992e-05
15.4083,2.234167847,-0.3049177582,-32.10053325,3.928790075,0.3601303655,,73.95965246,-0.001342148285,-0.0004244981801,-4.021394656e-05
15.5167,2.234119583,-0.3048746045,-32.10029432,3.928649086,0.3600802459,,73.95964781,-0.001068190472,-0.0004368809822,-3.975683505e-05
15.6,2.234108295,-0.3048555838,-32.10030977,3.928566092,0.360043487,,73.9596445,-0.0009143264709,-0.0004488292848,-3.989364862e-05
15.7,2.234101765,-0.3048398194,-32.10037852,3.928481905,0.3599982005,,73.95964051,-0.0007637786988,-0.0004620412056,-4.014721429e-05
15.8083,2.234086796,-0.3048100614,-32.10040319,3.928405833,0.359947349,,73.95963614,-0.0006358506403,-0.0004786326452,-4.078244137e-05
15.9167,2.234071068,-0.3047801202,-32.10041578,3.928342271,0.3598947634,,73.95963169,-0.0005335380985,-0.0004942838603,-4.147680301e-05
16,2.234073448,-0.3047658856,-32.1005487,3.928300351,0.3598532092,,73.95962822,-0.0004688234267,-0.0005082875313,-4.224181757e-05
16.1083,2.234058927,-0.3047342334,-32.10055338,3.928253279,0.3597976305,,73.95962362,-0.0003980878278,-0.0005240485982,-4.310868535e-05
16.2,2.23404967,-0.3047047957,-32.1005776,3.928218934,0.3597490834,,73.95961964,-0.0003485854426,-0.0005383478575,-4.397054445e-05
16.3,2.234014113,-0.3194458621,-32.100435,3.928186814,0.3595029136,,73.95960019,-0.000286441588,-0.008785853553,-0.000689530029
16.4,2.233998724,-0.3023708632,-32.10045987,3.928160373,0.3582782328,,73.95950415,-0.0002353872856,-0.01290653728,-0.001011960003
16.5083,2.233984885,-0.3004202286,-32.10045752,3.928137342,0.35703159,,73.9594064,-0.0001786579865,-0.009717020398,-0.0007618866224
16.6083,2.233991156,-0.3005682374,-32.10052638,3.928121331,0.3561881609,,73.95934027,-0.0001377274712,-0.007043274539,-0.0005522872503
16.7,2.233999565,-0.3008205821,-32.10056065,3.928109308,0.3555797835,,73.95929257,-0.0001015961265,-0.005065882381,-0.000397246322
16.8,2.234002704,-0.3009940403,-32.10057109,3.92810108,0.3551735654,,73.95926071,-7.67860431e-05,-0.003742548299,-0.0002934842311
16.9083,2.234005385,-0.3011427308,-32.1005796,3.928093916,0.3548280681,,73.95923362,-5.495935397e-05,-0.002615677606,-0.0002051233441
17.0083,2.234007292,-0.3012401547,-32.10058566,3.928089133,0.354602299,,73.95921591,-4.018782129e-05,-0.001878335144,-0.0001473040226
17.1083,2.234008714,-0.3013105588,-32.10059031,3.928085643,0.3544402109,,73.9592032,-2.923514674e-05,-0.001348042169,-0.0001057207525
17.2083,2.23400967,-0.3013539062,-32.10059306,3.928083478,0.3543407235,,73.9591954,-2.231991405e-05,-0.001021774955,-8.013396396e-05
17.475,2.234010517,-0.3013924678,-32.10059496,3.928081551,0.3542526216,,73.95918849,-1.602335789e-05,-0.0007319556457,-5.740444474e-05
17.475,2.234010517,-0.3013924678,-32.10059496,3.928081551,0.3542526216,,73.95918849,-1.602335789e-05,-0.0007319556457,-5.740444474e-05
17.5167,2.234012167,-0.3014451301,-32.10059955,3.928079172,0.354141762,,73.95917979,-7.66366076e-06,-0.0003635579789,-2.851219979e-05
17.7667,2.234012347,-0.3014530526,-32.1006002,3.928078708,0.3541197387,,73.95917807,-6.081239292e-06,-0.0002905347478,-2.278561461e-05
17.7667,2.234012347,-0.3014530526,-32.1006002,3.928078708,0.3541197387,,73.95917807,-6.081239292e-06,-0.0002905347478,-2.278561461e-05
17.8167,2.23401316,-0.3014771219,-32.10060126,3.928077828,0.3540740375,,73.95917448,-2.360942656e-06,-0.0001336643202,-1.048191619e-05
18.1167,2.234013158,-0.3014796418,-32.10060174,3.928077659,0.3540642293,,73.95917371,-1.638918822e-06,-9.98214963e-05,-7.827065638e-06
18.1167,2.234013158,-0.3014796418,-32.10060174,3.928077659,0.3540642293,,73.95917371,-1.638918822e-06,-9.98214963e-05,-7.827065638e-06
18.1167,2.234013158,-0.3014796418,-32.10060174,3.928077659,0.3540642293,,73.95917371,-1.638918822e-06,-9.98214963e-05,-7.827065638e-06
18.25,2.234013706,-0.3014911641,-32.10060289,3.928077523,0.3540453498,,73.95917223,1.212103618e-07,-2.708125759e-05,-2.121052726e-06
18.475,2.234013778,-0.3014926856,-32.10060354,3.928077534,0.3540439462,,73.95917212,2.658746949e-07,-2.05304436e-05,-1.608010138e-06
18.475,2.234013778,-0.3014926856,-32.10060354,3.928077534,0.3540439462,,73.95917212,2.658746949e-07,-2.05304436e-05,-1.608010138e-06
18.5333,2.23401411,-0.3014980265,-32.10060311,3.928077691,0.3540417237,,73.95917195,7.682949252e-07,-5.087863768e-06,-3.965685035e-07
18.6167,2.234014054,-0.3014971603,-32.10060331,3.928077774,0.3540413798,,73.95917192,7.818458515e-07,-1.138342485e-06,-8.650275365e-08
18.7083,2.234014081,-0.3014974235,-32.10060404,3.928077847,0.3540413905,,73.95917193,8.282651882e-07,1.570483611e-06,1.247660274e-07
18.8167,2.234014189,-0.301498165,-32.10060418,3.928077949,0.3540417293,,73.95917195,9.243477444e-07,4.294231384e-06,3.390274601e-07
18.9083,2.234014119,-0.301498941,-32.10060314,3.928078029,0.3540421418,,73.95917199,9.870902008e-07,5.718395568e-06,4.506167257e-07
19,2.234014204,-0.3014993698,-32.1006033,3.928078122,0.3540427171,,73.95917203,1.053359986e-06,6.918844624e-06,5.470507225e-07
19.1167,2.234014357,-0.3015006135,-32.10060335,3.928078258,0.3540436687,,73.95917211,1.113315064e-06,8.091429827e-06,6.404311507e-07
19.2,2.234014382,-0.3015008063,-32.10060397,3.928078323,0.3540441458,,73.95917214,1.129618835e-06,8.382194407e-06,6.615488849e-07
19.3333,2.234014499,-0.3015022577,-32.10060373,3.928078486,0.3540454025,,73.95917224,1.165810486e-06,9.172309991e-06,7.228582964e-07
19.4,2.234014487,-0.3015022739,-32.10060298,3.928078574,0.3540460957,,73.9591723,1.17512613e-06,9.286563188e-06,7.340543471e-07
19.525,2.234014626,-0.301503048,-32.10060377,3.92807872,0.3540472709,,73.95917239,1.164489071e-06,9.526234881e-06,7.496942639e-07
19.6167,2.234014685,-0.3015032608,-32.10060335,3.928078827,0.3540481497,,73.95917246,1.17539316e-06,9.696926158e-06,7.668797478e-07
19.7083,2.234014733,-0.3015038832,-32.10060352,3.928078935,0.3540490429,,73.95917253,1.178006519e-06,9.816483379e-06,7.746102606e-07
19.825,2.234014891,-0.3015046963,-32.10060405,3.928079074,0.3540501936,,73.95917262,1.18491201e-06,9.931220878e-06,7.816493793e-07
19.9167,2.23401487,-0.3015053956,-32.1006034,3.928079183,0.3540511078,,73.95917269,1.186342717e-06,1.001154405e-05,7.876176095e-07
20.0083,2.234014881,-0.3015058547,-32.1006026,3.928079292,0.3540520272,,73.95917277,1.186011184e-06,1.005437711e-05,7.912123738e-07
20.125,2.234014999,-0.3015063863,-32.10060313,3.928079431,0.3540532012,,73.95917286,1.194050188e-06,1.008938835e-05,7.94295547e-07
20.2167,2.2340151,-0.3015067604,-32.10060335,3.928079541,0.3540541267,,73.95917293,1.194674005e-06,1.013931004e-05,7.998452114e-07
20.3083,2.234015138,-0.3015075795,-32.10060354,3.92807965,0.3540550573,,73.95917301,1.194307462e-06,1.014855881e-05,7.986350889e-07
20.4,2.234015281,-0.3015078452,-32.10060338,3.92807977,0.3540560737,,73.95917309,1.202868937e-06,1.019255655e-05,8.055896833e-07
20.5167,2.234015291,-0.3015085259,-32.1006034,3.92807991,0.3540572576,,73.95917318,1.20020545e-06,1.017493653e-05,8.043345509e-07
20.6083,2.234015333,-0.3015092206,-32.10060333,3.92808001,0.3540581031,,73.95917325,1.19663582e-06,1.015142874e-05,7.990328809e-07
20.725,2.234015461,-0.3015098808,-32.10060374,3.92808015,0.3540592882,,73.95917334,1.200208934e-06,1.016605108e-05,8.001670612e-07
20.8083,2.234015445,-0.3015101134,-32.10060311,3.92808026,0.3540602201,,73.95917341,1.202879441e-06,1.020214297e-05,8.061602557e-07
20.9,2.234015526,-0.3015108222,-32.10060339,3.92808036,0.3540610675,,73.95917348,1.202715038e-06,1.018545518e-05,8.017767297e-07
21.0167,2.234015602,-0.3015115795,-32.10060331,3.9280805,0.3540622547,,73.95917357,1.198991304e-06,1.017283423e-05,8.006994168e-07
21.1,2.234015722,-0.3015118468,-32.10060349,3.9280806,0.3540631015,,73.95917364,1.195759166e-06,1.0162767e-05,8.003311387e-07
21.2167,2.2340158,-0.3015126463,-32.10060357,3.928080741,0.3540642888,,73.95917373,1.200316641e-06,1.016473862e-05,8.001908191e-07
21.3083,2.234015826,-0.3015131786,-32.10060397,3.928080851,0.3540652226,,73.95917381,1.201047227e-06,1.019556704e-05,8.025300246e-07
21.4,2.234015895,-0.3015137011,-32.10060317,3.928080961,0.3540661572,,73.95917388,1.205802057e-06,1.019176728e-05,8.023442212e-07
21.5167,2.234015953,-0.3015144451,-32.10060331,3.928081101,0.3540673443,,73.95917397,1.198826078e-06,1.016804019e-05,8.002470646e-07
21.6083,2.234016021,-0.3015149533,-32.10060319,3.928081211,0.3540682775,,73.95917405,1.196430709e-06,1.017401694e-05,8.007180057e-07
21.7167,2.234016092,-0.3015155677,-32.10060316,3.928081351,0.3540694634,,73.95917414,1.202244139e-06,1.017631643e-05,8.009805423e-07
21.8083,2.23401615,-0.3015159813,-32.10060351,3.928081451,0.3540703092,,73.95917421,1.204375362e-06,1.017395956e-05,8.009599516e-07
21.9,2.234016196,-0.3015163028,-32.10060302,3.928081561,0.3540712414,,73.95917428,1.208779301e-06,1.020464774e-05,8.072025181e-07
22.025,2.234016334,-0.3015170627,-32.10060368,3.928081711,0.3540725157,,73.95917438,1.200859021e-06,1.019396173e-05,8.061417686e-07
22.1167,2.234016404,-0.3015178141,-32.10060352,3.928081821,0.3540734501,,73.95917446,1.19655917e-06,1.017202334e-05,8.007111972e-07
22.2167,2.234016421,-0.3015182159,-32.10060315,3.928081941,0.354074469,,73.95917454,1.205609031e-06,1.019915436e-05,8.061917456e-07
22.3167,2.234016478,-0.3015187457,-32.1006029,3.928082062,0.3540754892,,73.95917462,1.208516064e-06,1.019905993e-05,8.066086039e-07
22.4083,2.234016602,-0.301519388,-32.10060337,3.928082172,0.3540764212,,73.95917469,1.193635021e-06,1.017711304e-05,8.012603655e-07
22.5,2.23401658,-0.3015198246,-32.10060291,3.928082281,0.3540773525,,73.95917476,1.202714021e-06,1.016769284e-05,8.037943818e-07
22.625,2.234016645,-0.3015205206,-32.10060267,3.928082431,0.3540786228,,73.95917486,1.203092444e-06,1.018136405e-05,8.046220188e-07
22.725,2.234016788,-0.3015210805,-32.10060358,3.928082551,0.3540796418,,73.95917494,1.204572884e-06,1.018669476e-05,8.056331958e-07
22.8167,2.234016937,-0.3015219413,-32.10060391,3.928082661,0.3540805745,,73.95917502,1.198248158e-06,1.014811559e-05,7.985531131e-07
22.9083,2.234016901,-0.3015223705,-32.10060311,3.928082771,0.3540815043,,73.95917509,1.187409264e-06,1.013873532e-05,7.97931554e-07
23,2.234017048,-0.3015227291,-32.1006038,3.928082891,0.3540825204,,73.95917517,1.196248248e-06,1.016841084e-05,8.040118492e-07
23.1167,2.234016978,-0.3015235934,-32.10060306,3.92808303,0.3540837041,,73.95917527,1.198741225e-06,1.015024844e-05,7.988302034e-07
23.2083,2.234017204,-0.3015238611,-32.10060373,3.92808314,0.354084633,,73.95917534,1.202618933e-06,1.01740539e-05,8.040822091e-07
23.325,2.234017267,-0.3015246137,-32.10060384,3.928083269,0.3540857306,,73.95917543,1.19590339e-06,1.011700104e-05,7.966720608e-07
23.4083,2.234017235,-0.301525272,-32.1006032,3.928083379,0.354086661,,73.9591755,1.190605938e-06,1.015652299e-05,7.992629892e-07
23.5,2.234017282,-0.3015256835,-32.10060341,3.928083478,0.3540875051,,73.95917557,1.19342095e-06,1.014841338e-05,7.98790796e-07
23.625,2.234017328,-0.3015264186,-32.10060315,3.928083628,0.3540887761,,73.95917567,1.197912288e-06,1.016211331e-05,7.998094699e-07
23.7167,2.234017479,-0.3015269669,-32.10060322,3.928083738,0.3540897077,,73.95917574,1.199038102e-06,1.015605772e-05,7.993963051e-07
23.8167,2.234017509,-0.3015273465,-32.10060337,3.928083858,0.3540907247,,73.95917582,1.200017348e-06,1.019054311e-05,8.061127353e-07
23.9167,2.234017637,-0.3015278749,-32.10060353,3.928083978,0.354091743,,73.9591759,1.203504363e-06,1.018062294e-05,8.048635806e-07
24,2.234017632,-0.301528389,-32.10060299,3.928084088,0.3540926739,,73.95917597,1.196588401e-06,1.015147366e-05,8.029246669e-07
24.1167,2.234017683,-0.3015292413,-32.10060294,3.928084217,0.354093769,,73.95917606,1.190978886e-06,1.012543858e-05,7.967924254e-07
24.2,2.234017797,-0.3015295088,-32.10060283,3.928084317,0.354094612,,73.95917613,1.191346579e-06,1.011311398e-05,7.964705864e-07
24.3083,2.234017809,-0.3015301946,-32.10060277,3.928084456,0.3540957927,,73.95917622,1.196222265e-06,1.016257074e-05,8.008326985e-07
24.4167,2.234017899,-0.3015308043,-32.10060286,3.928084586,0.35409689,,73.95917631,1.195591209e-06,1.0127606e-05,7.975226639e-07
24.5083,2.234017941,-0.301531451,-32.10060302,3.928084685,0.3540977333,,73.95917637,1.19422435e-06,1.014609022e-05,7.984439904e-07
24.625,2.234014512,-0.301531736,-32.10060505,3.928085019,0.3540989908,,73.95917647,6.0973587e-06,1.156456362e-05,9.352007828e-07
24.7167,2.234018437,-0.3015328501,-32.10060461,3.928085659,0.3541000471,,73.95917656,7.447899172e-06,1.142461669e-05,9.331436024e-07
24.8,2.234019935,-0.3015336376,-32.1006046,3.928086323,0.3541010815,,73.95917664,6.811386834e-06,1.110828665e-05,9.029305263e-07
24.9167,2.234020542,-0.3015340383,-32.10060406,3.928087039,0.3541023578,,73.95917675,5.331739627e-06,1.082256072e-05,8.75182924e-07
25.0083,2.234020594,-0.3015344696,-32.10060406,3.928087444,0.3541032501,,73.95917682,4.343296025e-06,1.066075462e-05,8.580178677e-07
25.1167,2.23402057,-0.3015353292,-32.10060356,3.928087889,0.3541044834,,73.95917692,3.258593963e-06,1.048733216e-05,8.361003197e-07
25.2083,2.234020546,-0.3015357676,-32.10060386,3.928088138,0.3541053524,,73.95917699,2.682838149e-06,1.040854956e-05,8.267714754e-07
25.3083,2.234020437,-0.3015361694,-32.10060285,3.928088383,0.3541063917,,73.95917707,2.213819497e-06,1.036657704e-05,8.247247745e-07
25.4083,2.234020361,-0.3015367028,-32.10060202,3.928088588,0.3541074258,,73.95917715,1.882383959e-06,1.030283365e-05,8.181556163e-07
25.5,2.234020451,-0.3015374335,-32.10060329,3.92808875,0.3541083672,,73.95917723,1.66484792e-06,1.023212046e-05,8.076557522e-07
25.6,2.234020487,-0.301537792,-32.10060295,3.928088909,0.35410939,,73.95917731,1.505566935e-06,1.023092923e-05,8.099338471e-07
25.725,2.234020437,-0.3015384902,-32.10060249,3.928089089,0.3541106647,,73.95917741,1.381323109e-06,1.018568627e-05,8.055697923e-07
25.8167,2.234020512,-0.3015391642,-32.1006023,3.928089213,0.3541115975,,73.95917748,1.312467776e-06,1.016147424e-05,8.005274425e-07
25.9083,2.234020602,-0.3015395943,-32.10060251,3.928089342,0.3541126143,,73.95917756,1.279089471e-06,1.017572531e-05,8.044557141e-07
26,2.23402066,-0.3015401396,-32.1006026,3.928089447,0.3541134583,,73.95917763,1.253727848e-06,1.014182631e-05,7.98646048e-07
26.125,2.234020762,-0.301540939,-32.10060309,3.928089602,0.3541147259,,73.95917773,1.226234291e-06,1.012933244e-05,7.974854596e-07
26.2083,2.234020797,-0.301541505,-32.10060261,3.928089714,0.3541156547,,73.9591778,1.213201114e-06,1.012585927e-05,7.971047793e-07
26.3167,2.234020821,-0.3015422116,-32.10060275,3.928089835,0.3541166686,,73.95917788,1.214751697e-06,1.023860998e-05,8.064176323e-07
26.4083,2.234020979,-0.3015425801,-32.10060308,3.928089946,0.3541176007,,73.95917796,1.205019196e-06,1.012103987e-05,7.96821059e-07
26.5,2.234021021,-0.3015428697,-32.10060271,3.928090056,0.3541185266,,73.95917803,1.19667214e-06,1.012690178e-05,7.99522105e-07
26.6083,2.234021037,-0.3015434876,-32.10060256,3.928090196,0.3541197043,,73.95917812,1.197975415e-06,1.011121084e-05,7.994243543e-07
26.725,2.234021121,-0.3015442914,-32.10060315,3.928090325,0.3541207964,,73.95917821,1.185697208e-06,1.011298933e-05,7.958900133e-07
26.8083,2.234021191,-0.3015446285,-32.10060258,3.928090434,0.3541217232,,73.95917828,1.197068123e-06,1.014234184e-05,8.010910012e-07
26.9167,2.234021367,-0.301545357,-32.10060306,3.928090563,0.354122818,,73.95917837,1.18671879e-06,1.010361597e-05,7.955371908e-07
27,2.23402132,-0.3015457064,-32.100603,3.928090662,0.3541236579,,73.95917843,1.189948148e-06,1.013975393e-05,8.013744972e-07
27.1167,2.234021358,-0.3015465138,-32.10060223,3.92809079,0.3541247525,,73.95917852,1.190035043e-06,1.01221045e-05,7.969060169e-07
27.2083,2.234021418,-0.301547119,-32.10060261,3.9280909,0.3541256819,,73.95917859,1.188557216e-06,1.013878882e-05,7.979026754e-07
27.3167,2.234021473,-0.3015474496,-32.10060215,3.928091039,0.3541268614,,73.95917869,1.196059955e-06,1.014426855e-05,8.019622412e-07
27.4083,2.23402154,-0.3015481565,-32.10060288,3.928091138,0.3541277041,,73.95917875,1.193080162e-06,1.013507535e-05,7.977141221e-07
27.525,2.234021755,-0.3015488933,-32.10060292,3.928091278,0.3541288845,,73.95917885,1.19275602e-06,1.012075449e-05,7.966084621e-07
27.6083,2.234021656,-0.3015492037,-32.10060207,3.928091387,0.3541298119,,73.95917892,1.19043082e-06,1.013976036e-05,8.015389565e-07
27.7167,2.234021827,-0.3015499442,-32.10060304,3.928091516,0.3541309055,,73.959179,1.187160042e-06,1.01121316e-05,7.959622104e-07
27.8083,2.234021901,-0.3015504335,-32.10060282,3.928091615,0.3541317465,,73.95917907,1.187555693e-06,1.012170386e-05,7.965848188e-07
27.9167,2.234021894,-0.3015509773,-32.10060235,3.928091754,0.3541329254,,73.95917916,1.193243478e-06,1.013112882e-05,7.996432121e-07
28,2.234021952,-0.3015514557,-32.10060218,3.928091853,0.3541337664,,73.95917923,1.194989202e-06,1.013391128e-05,7.986551965e-07
28.1083,2.234028684,-0.2951250283,-32.10046642,3.928091964,0.3541378415,,73.95917955,-3.546122165e-06,0.001092321067,8.55208463e-05
28.2,2.234029434,-0.2968562649,-32.10075048,3.928090757,0.3547582825,,73.95922813,-1.782159194e-05,0.01229895898,0.0009630515584
28.325,2.234039245,-0.3052566609,-32.10089602,3.928089411,0.3561791011,,73.95933939,1.36394729e-06,0.01081464926,0.0008469151346
28.4083,2.233976176,-0.3055259987,-32.10038619,3.928089653,0.3570582867,,73.95940824,4.23467718e-06,0.008184438745,0.0006409554455
28.525,2.234014705,-0.3053545314,-32.10058056,3.928090933,0.357817131,,73.95946767,1.789315816e-05,0.005763999274,0.0004514787734
28.6083,2.234019942,-0.3051826527,-32.10057899,3.928092588,0.3582431369,,73.95950104,2.154584731e-05,0.004383582546,0.0003433974822
28.7167,2.234024586,-0.3050008005,-32.10057797,3.928095154,0.3586736862,,73.95953477,2.177742035e-05,0.002986150887,0.0002339635907
28.8,2.234026563,-0.3049068452,-32.10057716,3.928096915,0.3588943337,,73.95955206,2.019355385e-05,0.002270248796,0.0001778919045
28.9167,2.234028012,-0.304817702,-32.10057567,3.928098963,0.359104102,,73.9595685,1.729257884e-05,0.00159028387,0.0001246293885
29,2.234028805,-0.3047635554,-32.10057577,3.92810044,0.3592317219,,73.9595785,1.47128863e-05,0.001177230755,9.226877502e-05
29.125,2.234029294,-0.3047146128,-32.10057501,3.928101988,0.3593474301,,73.95958757,1.168237644e-05,0.00080347852,6.298346739e-05
29.2083,2.23402956,-0.304689955,-32.1005759,3.928102889,0.3594068473,,73.95959223,9.790580571e-06,0.0006120713744,4.798553549e-05
29.325,2.234029629,-0.3046648716,-32.10057447,3.928103908,0.3594670702,,73.95959695,7.589596577e-06,0.0004188344613,3.284046547e-05
29.4083,2.234029652,-0.3046509669,-32.1005738,3.928104544,0.3595007417,,73.95959959,6.210450224e-06,0.0003114236241,2.442187333e-05
29.525,2.23402974,-0.3046395614,-32.10057427,3.928105149,0.3595296126,,73.95960185,4.91627734e-06,0.000219975217,1.725350664e-05
29.6,2.234029693,-0.3046329722,-32.10057339,3.928105529,0.3595459287,,73.95960313,4.137102988e-06,0.0001688126855,1.324287903e-05
29.7167,2.23402969,-0.3046266091,-32.10057342,3.928105963,0.3595626344,,73.95960444,3.297118947e-06,0.000117194818,9.196659978e-06
29.8083,2.234029775,-0.3046236676,-32.10057357,3.92810622,0.3595713565,,73.95960513,2.840223904e-06,9.072998481e-05,7.118365521e-06
29.9083,2.2340298,-0.3046208154,-32.10057378,3.928106484,0.3595792892,,73.95960575,2.421734532e-06,6.726000378e-05,5.2824195e-06
30,2.234029857,-0.3046191479,-32.10057354,3.928106692,0.3595847636,,73.95960618,2.111917452e-06,5.155943068e-05,4.049707936e-06
30.1167,2.234029859,-0.3046177578,-32.10057277,3.928106923,0.359589955,,73.95960659,1.822085807e-06,3.73479131e-05,2.931535945e-06
30.2083,2.234029937,-0.3046170016,-32.10057355,3.928107083,0.3595930305,,73.95960683,1.668544214e-06,2.9457739e-05,2.316885098e-06
30.325,2.234029923,-0.3046166713,-32.10057303,3.928107269,0.3595960522,,73.95960707,1.514088441e-06,2.229410738e-05,1.752478971e-06
30.425,2.234029937,-0.3046166252,-32.10057233,3.928107416,0.3595980767,,73.95960723,1.430887254e-06,1.81101824e-05,1.423192902e-06
30.525,2.234030079,-0.3046167943,-32.10057329,3.928107534,0.3595994843,,73.95960734,1.390956133e-06,1.551890403e-05,1.220694307e-06
30.6083,2.23403014,-0.3046165953,-32.10057297,3.92810767,0.3596009202,,73.95960745,1.316237717e-06,1.303775995e-05,1.024927126e-06
30.725,2.234030287,-0.3046167343,-32.10057386,3.928107821,0.3596023295,,73.95960756,1.26656127e-06,1.110212658e-05,8.747460678e-07
30.8167,2.234030214,-0.3046170013,-32.10057245,3.928107936,0.3596033022,,73.95960764,1.241047282e-06,1.006896213e-05,7.9346294e-07
30.9167,2.234030287,-0.3046171403,-32.10057239,3.928108058,0.3596042704,,73.95960771,1.211602193e-06,9.25955119e-06,7.326437517e-07
31,2.234030363,-0.3046174932,-32.10057274,3.928108169,0.3596050931,,73.95960778,1.204478289e-06,8.673897425e-06,6.842766296e-07
31.125,2.23403045,-0.3046179751,-32.10057343,3.928108309,0.3596060744,,73.95960786,1.202951661e-06,8.171174031e-06,6.445035612e-07
31.2167,2.234030468,-0.3046183621,-32.10057323,3.928108419,0.3596068108,,73.95960791,1.197972997e-06,7.891054716e-06,6.223596775e-07
31.3083,2.234030537,-0.3046185068,-32.10057275,3.928108538,0.3596075894,,73.95960798,1.184779494e-06,7.680235941e-06,6.093545222e-07
31.425,2.234030672,-0.3046189794,-32.10057325,3.928108665,0.3596084083,,73.95960804,1.173579535e-06,7.467773428e-06,5.895198335e-07
31.5083,2.234030731,-0.3046193946,-32.10057299,3.928108773,0.3596090893,,73.95960809,1.177063775e-06,7.384808162e-06,5.83009126e-07
31.6167,2.234030742,-0.3046196885,-32.10057322,3.9281089,0.359609881,,73.95960816,1.169574635e-06,7.297928245e-06,5.7779e-07
31.7,2.234030739,-0.3046199538,-32.10057234,3.928108997,0.3596104851,,73.95960821,1.172284095e-06,7.260594259e-06,5.747573889e-07
31.8083,2.234030935,-0.3046204783,-32.10057323,3.928109124,0.3596112668,,73.95960827,1.172629432e-06,7.179824546e-06,5.671653561e-07
31.9,2.234030942,-0.3046208103,-32.10057292,3.928109211,0.3596118031,,73.95960831,1.163560071e-06,7.153270817e-06,5.648212887e-07
32.0083,2.234031016,-0.3046216139,-32.10057322,3.928109348,0.3596126458,,73.95960838,1.181446828e-06,7.239062733e-06,5.718534101e-07
32.1167,2.234031118,-0.3046217882,-32.10057335,3.928109485,0.3596134813,,73.95960844,1.162875264e-06,7.106229431e-06,5.611229162e-07
32.2167,2.234031224,-0.3046220116,-32.10057319,3.928109602,0.3596141876,,73.9596085,1.162831948e-06,7.06705155e-06,5.583260157e-07
32.3167,2.234031266,-0.3046224824,-32.10057307,3.928109718,0.3596148933,,73.95960855,1.163051914e-06,7.077840397e-06,5.590509769e-07
32.4083,2.234031256,-0.3046226945,-32.10057256,3.928109815,0.359615483,,73.9596086,1.17389184e-06,7.13161042e-06,5.652483553e-07
32.5083,2.234031395,-0.3046233056,-32.10057332,3.928109941,0.3596162527,,73.95960866,1.165047287e-06,7.106382048e-06,5.609772251e-07
32.6,2.234031311,-0.3046233794,-32.10057252,3.928110047,0.3596168995,,73.95960871,1.161224064e-06,7.032481484e-06,5.549904232e-07
32.7083,2.23403146,-0.3046239739,-32.10057313,3.928110164,0.3596176042,,73.95960877,1.158962723e-06,7.083078202e-06,5.592228968e-07
32.8083,2.234031564,-0.3046244015,-32.10057258,3.92811029,0.3596183722,,73.95960883,1.158994786e-06,7.090486996e-06,5.600394712e-07
32.9167,2.234031619,-0.3046247425,-32.1005724,3.928110416,0.359619139,,73.95960889,1.166922808e-06,7.113626319e-06,5.640630095e-07
33.0167,2.234031721,-0.3046252694,-32.10057334,3.928110533,0.3596198467,,73.95960895,1.169893189e-06,7.08087406e-06,5.593078926e-07
33.1167,2.234031755,-0.3046255689,-32.10057275,3.928110649,0.3596205528,,73.959609,1.171582408e-06,7.091675971e-06,5.601560135e-07
33.2,2.234031787,-0.3046258894,-32.10057215,3.928110746,0.359621143,,73.95960905,1.165761091e-06,7.125264403e-06,5.648373485e-07
33.3083,2.234031852,-0.3046264758,-32.10057263,3.928110863,0.3596218512,,73.9596091,1.172200201e-06,7.081824227e-06,5.591107774e-07
33.4,2.234031987,-0.304626873,-32.10057337,3.92811097,0.3596225025,,73.95960916,1.176095808e-06,7.105273362e-06,5.610353083e-07
33.5167,2.234032053,-0.304627285,-32.10057357,3.928111107,0.3596233306,,73.95960922,1.168435126e-06,7.103378724e-06,5.609119144e-07
33.6,2.23403204,-0.3046277348,-32.10057269,3.928111214,0.3596239815,,73.95960927,1.168317669e-06,7.09809048e-06,5.603121636e-07
33.7167,2.234032141,-0.3046280303,-32.10057261,3.92811134,0.3596247477,,73.95960933,1.163084335e-06,7.066529952e-06,5.581020191e-07
33.8,2.234032198,-0.3046283637,-32.10057311,3.928111437,0.3596253362,,73.95960938,1.165265244e-06,7.066449357e-06,5.580036341e-07
33.9083,2.234032247,-0.3046287157,-32.10057242,3.928111573,0.3596261606,,73.95960944,1.161436592e-06,7.099273145e-06,5.625538722e-07
34.0167,2.234032339,-0.3046292806,-32.10057242,3.928111699,0.3596269265,,73.95960951,1.160881311e-06,7.081127208e-06,5.591420586e-07
34.1167,2.234032372,-0.3046296226,-32.10057223,3.928111815,0.3596276309,,73.95960956,1.158113841e-06,7.053098419e-06,5.569598693e-07
34.2083,2.234032416,-0.3046300894,-32.10057295,3.928111912,0.3596282193,,73.95960961,1.165583448e-06,7.087637823e-06,5.593596881e-07
34.3167,2.234032561,-0.3046303689,-32.10057344,3.928112038,0.3596289851,,73.95960967,1.160222205e-06,7.073322204e-06,5.586337022e-07
34.4,2.234032552,-0.3046307301,-32.10057236,3.928112135,0.3596295743,,73.95960971,1.163522941e-06,7.072890005e-06,5.585646009e-07
34.5083,2.234032564,-0.3046310937,-32.10057221,3.928112271,0.3596303989,,73.95960978,1.170420849e-06,7.098122289e-06,5.62003001e-07
34.6167,2.234032789,-0.3046316099,-32.10057316,3.928112398,0.3596311649,,73.95960984,1.164223333e-06,7.068150735e-06,5.583266051e-07
34.7,2.234032831,-0.3046319089,-32.10057282,3.928112494,0.3596317531,,73.95960989,1.16419907e-06,7.08861979e-06,5.598659782e-07
34.8,2.234032847,-0.3046323254,-32.10057261,3.92811261,0.3596324569,,73.95960994,1.158452668e-06,7.050591297e-06,5.567163692e-07
34.9083,2.234032992,-0.3046327094,-32.10057295,3.928112736,0.3596332212,,73.95961,1.15930273e-06,7.065028358e-06,5.581167758e-07
35.0167,2.23403299,-0.3046331163,-32.1005732,3.928112853,0.3596339256,,73.95961006,1.163272468e-06,7.067334484e-06,5.581875817e-07
35.1,2.23403305,-0.3046334994,-32.10057254,3.928112949,0.3596345148,,73.95961011,1.159725842e-06,7.067517725e-06,5.58105999e-07
35.2083,2.234033047,-0.3046339271,-32.10057223,3.928113085,0.3596353398,,73.95961017,1.163975954e-06,7.085403595e-06,5.615248139e-07
35.3167,2.234033198,-0.3046344492,-32.10057266,3.928113211,0.3596361058,,73.95961023,1.159563074e-06,7.080575219e-06,5.591319715e-07
35.4083,2.234033244,-0.3046347865,-32.10057239,3.928113318,0.3596367549,,73.95961028,1.167257883e-06,7.097515146e-06,5.626860386e-07
35.5167,2.234033373,-0.3046353772,-32.1005732,3.928113444,0.3596375199,,73.95961034,1.164403736e-06,7.072729305e-06,5.58131895e-07
35.6083,2.234033285,-0.3046355957,-32.10057282,3.928113541,0.3596381073,,73.95961039,1.164574909e-06,7.074070852e-06,5.583973065e-07
35.7167,2.234033498,-0.3046358841,-32.10057342,3.928113667,0.3596388716,,73.95961045,1.155745713e-06,7.056489743e-06,5.572675373e-07
35.8,2.234033466,-0.3046362703,-32.10057262,3.928113763,0.3596394595,,73.9596105,1.164638981e-06,7.057451997e-06,5.573791856e-07
35.9083,2.234033596,-0.3046368227,-32.10057309,3.928113899,0.3596402831,,73.95961056,1.162071232e-06,7.076723107e-06,5.585295334e-07
36.025,2.234033611,-0.3046371132,-32.10057224,3.928114035,0.3596411066,,73.95961063,1.157509049e-06,7.090203122e-06,5.607855265e-07
36.125,2.234033731,-0.304637559,-32.10057283,3.92811415,0.3596418106,,73.95961068,1.156987576e-06,7.032913017e-06,5.554714282e-07
36.2333,2.234033796,-0.3046379001,-32.10057269,3.928114266,0.3596425124,,73.95961074,1.157487112e-06,7.051235629e-06,5.56892905e-07
36.3167,2.234033799,-0.3046383051,-32.10057268,3.928114363,0.3596431004,,73.95961078,1.159621713e-06,7.053646906e-06,5.571807512e-07
36.4167,2.234033873,-0.3046387653,-32.10057302,3.928114488,0.3596438649,,73.95961084,1.158545159e-06,7.047330036e-06,5.565928634e-07
36.5167,2.234034,-0.3046390262,-32.10057263,3.928114604,0.3596445671,,73.9596109,1.160552186e-06,7.048188615e-06,5.568744635e-07
36.625,2.234033965,-0.3046395666,-32.10057276,3.92811473,0.3596453297,,73.95961096,1.167076064e-06,7.085180408e-06,5.604454285e-07
36.7083,2.23403412,-0.3046399563,-32.10057287,3.928114827,0.3596459191,,73.95961101,1.16505735e-06,7.08330387e-06,5.592436626e-07
36.825,2.234034128,-0.3046404061,-32.10057272,3.928114953,0.359646683,,73.95961107,1.166528865e-06,7.079150679e-06,5.587504958e-07
36.9083,2.234034207,-0.3046405928,-32.10057228,3.928115049,0.3596472711,,73.95961111,1.156898683e-06,7.051793677e-06,5.570232782e-07
37.025,2.234034247,-0.304641209,-32.10057231,3.928115185,0.3596480951,,73.95961118,1.156274019e-06,7.06431138e-06,5.576308572e-07
37.125,2.234034271,-0.3046415528,-32.1005723,3.928115311,0.3596488583,,73.95961124,1.162721479e-06,7.032164484e-06,5.553047807e-07
37.2083,2.234034339,-0.304641773,-32.10057221,3.928115398,0.3596493841,,73.95961128,1.158330371e-06,7.029477467e-06,5.552749271e-07
37.3167,2.234034538,-0.3046423736,-32.10057327,3.928115533,0.3596502072,,73.95961135,1.158559197e-06,7.060393167e-06,5.574399993e-07
37.425,2.234034531,-0.3046427817,-32.10057223,3.928115659,0.3596509702,,73.95961141,1.160630095e-06,7.053293983e-06,5.569794712e-07
37.5083,2.234034683,-0.304643159,-32.10057297,3.928115755,0.3596515569,,73.95961145,1.162893582e-06,7.06289815e-06,5.575381207e-07
37.6167,2.23403474,-0.3046433546,-32.10057267,3.928115871,0.3596522592,,73.95961151,1.154530495e-06,7.044526698e-06,5.563920942e-07
37.725,2.234034665,-0.3046438065,-32.10057265,3.928116007,0.3596530814,,73.95961157,1.168987728e-06,7.088377648e-06,5.609928104e-07
37.8333,2.234034795,-0.3046443007,-32.10057293,3.928116123,0.3596537841,,73.95961163,1.16630205e-06,7.040602131e-06,5.559447997e-07
37.9083,2.23403485,-0.3046446138,-32.10057213,3.928116219,0.3596543713,,73.95961168,1.157346387e-06,7.047439898e-06,5.56523766e-07
38.0167,2.234034915,-0.3046449761,-32.10057267,3.928116335,0.3596550732,,73.95961173,1.160959204e-06,7.032342384e-06,5.554496858e-07
38.1167,2.234034951,-0.3046454509,-32.1005724,3.928116461,0.3596558357,,73.95961179,1.162607096e-06,7.035310297e-06,5.555631334e-07
38.2167,2.234035055,-0.3046458043,-32.10057281,3.928116577,0.3596565377,,73.95961185,1.154091432e-06,7.051152599e-06,5.567205046e-07
38.3083,2.234035164,-0.3046462683,-32.10057288,3.928116673,0.3596571249,,73.95961189,1.152786919e-06,7.055252154e-06,5.569791915e-07
38.425,2.234035224,-0.3046467192,-32.10057255,3.928116809,0.3596579482,,73.95961196,1.157625794e-06,7.056964605e-06,5.57159582e-07
38.5083,2.234035198,-0.3046470393,-32.10057252,3.928116915,0.3596585953,,73.95961201,1.170352455e-06,7.08129893e-06,5.600806269e-07
38.625,2.234035297,-0.3046474132,-32.10057212,3.92811705,0.3596594179,,73.95961207,1.162749733e-06,7.062331057e-06,5.608935287e-07
38.7167,2.234035304,-0.3046477357,-32.10057182,3.928117157,0.3596600637,,73.95961213,1.165161599e-06,7.070289869e-06,5.614177518e-07
38.825,2.234035492,-0.3046482529,-32.10057292,3.928117283,0.3596608261,,73.95961219,1.164565227e-06,7.026038624e-06,5.550137665e-07
38.9333,2.234035493,-0.3046486156,-32.10057246,3.928117398,0.3596615256,,73.95961224,1.153711342e-06,7.017002287e-06,5.540898619e-07
39.0167,2.234035527,-0.3046489049,-32.10057224,3.928117504,0.3596621702,,73.95961229,1.163177308e-06,7.057665612e-06,5.601505328e-07
39.125,2.234035658,-0.304649462,-32.10057272,3.928117629,0.3596629317,,73.95961235,1.15437407e-06,7.048921429e-06,5.564602894e-07
39.2083,2.234035745,-0.3046498233,-32.10057283,3.928117726,0.359663518,,73.9596124,1.156975028e-06,7.032710271e-06,5.552811009e-07
39.3083,2.23403585,-0.3046500893,-32.10057304,3.928117842,0.3596642178,,73.95961245,1.15966124e-06,7.022166815e-06,5.546061723e-07
39.4083,2.234035897,-0.3046505361,-32.10057261,3.928117957,0.3596649185,,73.95961251,1.150637221e-06,7.016965385e-06,5.542303799e-07
39.525,2.234035936,-0.3046511845,-32.10057293,3.928118091,0.3596657405,,73.95961257,1.161573567e-06,7.066485141e-06,5.579623049e-07
39.6083,2.234035909,-0.3046512316,-32.1005722,3.928118188,0.3596663259,,73.95961262,1.160470698e-06,7.060971508e-06,5.585281002e-07
39.7083,2.234036009,-0.3046517141,-32.10057262,3.928118304,0.3596670278,,73.95961268,1.157364718e-06,7.034826003e-06,5.554653118e-07
39.8083,2.234036051,-0.3046520364,-32.10057241,3.928118419,0.3596677277,,73.95961273,1.156432602e-06,7.015615105e-06,5.541370361e-07
39.925,2.234036207,-0.3046524738,-32.10057307,3.928118554,0.3596685437,,73.9596128,1.15989695e-06,7.030816099e-06,5.553120177e-07
40.025,2.234036208,-0.3046529415,-32.10057204,3.928118669,0.3596692452,,73.95961285,1.153091879e-06,7.029945082e-06,5.551355569e-07
40.125,2.23403626,-0.3046532905,-32.10057182,3.928118784,0.3596699464,,73.95961291,1.155393405e-06,7.043016392e-06,5.561472121e-07
40.2083,2.234036349,-0.3046538015,-32.10057245,3.928118881,0.3596705333,,73.95961295,1.155840211e-06,7.054083154e-06,5.568078644e-07
40.3167,2.234036424,-0.3046542531,-32.10057251,3.928119006,0.3596712958,,73.95961301,1.159005313e-06,7.04756125e-06,5.563394403e-07
40.425,2.234036491,-0.3046544008,-32.10057222,3.928119132,0.3596720561,,73.95961307,1.161452035e-06,7.057768624e-06,5.610392224e-07
40.525,2.234036603,-0.3046549397,-32.10057262,3.928119248,0.3596727584,,73.95961313,1.156801787e-06,7.018070377e-06,5.543684482e-07
40.625,2.23403665,-0.304655384,-32.10057263,3.928119363,0.3596734586,,73.95961319,1.156763671e-06,7.025724759e-06,5.546130479e-07
40.725,2.234036673,-0.3046556926,-32.10057187,3.928119479,0.3596741592,,73.95961324,1.155827795e-06,7.03324248e-06,5.553650895e-07
40.8167,2.234036675,-0.3046561358,-32.10057242,3.928119575,0.3596747446,,73.95961329,1.156796233e-06,7.050539765e-06,5.565011731e-07
40.9083,2.2340368,-0.3046563935,-32.10057221,3.928119681,0.3596753912,,73.95961334,1.155929635e-06,7.056442911e-06,5.582823147e-07
41.0167,2.23403684,-0.3046570034,-32.10057232,3.928119817,0.3596762131,,73.9596134,1.159003207e-06,7.042332957e-06,5.557490901e-07
41.125,2.234036998,-0.3046571906,-32.10057237,3.928119942,0.3596769729,,73.95961346,1.154704273e-06,7.016168684e-06,5.523683072e-07
41.2083,2.234037003,-0.3046577825,-32.10057203,3.928120038,0.3596775577,,73.95961351,1.159404072e-06,7.029862632e-06,5.54834415e-07
41.3167,2.234037038,-0.304657916,-32.10057175,3.928120163,0.3596783157,,73.95961357,1.150352648e-06,7.034495463e-06,5.591441656e-07
41.4083,2.234037152,-0.304658439,-32.10057218,3.928120278,0.3596790164,,73.95961362,1.15279752e-06,7.022329627e-06,5.545899837e-07
41.5083,2.234037198,-0.3046586462,-32.10057235,3.928120383,0.3596796555,,73.95961368,1.151951257e-06,7.008737347e-06,5.5368962e-07
41.6083,2.234037295,-0.3046591254,-32.10057282,3.928120498,0.3596803546,,73.95961373,1.151084217e-06,7.024516129e-06,5.5475353e-07
41.7333,2.234037333,-0.3046595611,-32.10057238,3.928120632,0.3596811705,,73.95961379,1.159913609e-06,7.018645312e-06,5.544099069e-07
41.8083,2.234037407,-0.3046599711,-32.10057242,3.928120729,0.3596817557,,73.95961384,1.153004088e-06,7.033638816e-06,5.553710349e-07
41.925,2.23403744,-0.3046603806,-32.10057218,3.928120864,0.3596825766,,73.95961391,1.155680107e-06,7.058854025e-06,5.59481572e-07
42.0083,2.234037555,-0.3046608247,-32.10057248,3.92812096,0.3596831626,,73.95961395,1.162300705e-06,7.032865791e-06,5.553564375e-07
42.1083,2.234037603,-0.3046611009,-32.10057191,3.928121076,0.3596838623,,73.95961401,1.154396332e-06,7.000566699e-06,5.529623429e-07
42.2167,2.234037653,-0.3046616261,-32.10057211,3.928121201,0.3596846208,,73.95961407,1.159133638e-06,7.027301512e-06,5.548537366e-07
42.3083,2.234037807,-0.304661957,-32.10057252,3.928121317,0.3596853204,,73.95961412,1.154477658e-06,7.007734788e-06,5.534835704e-07
42.4417,2.23403772,-0.3046620488,-32.10057161,3.928121365,0.3596856104,,73.95961415,1.143682037e-06,6.991650816e-06,5.520222043e-07
42.525,2.234037944,-0.3046633097,-32.10057268,3.928121566,0.3596868501,,73.95961424,1.175851645e-06,6.943368028e-06,5.482836773e-07
42.6167,2.234037994,-0.3046631003,-32.10057258,3.928121672,0.359687477,,73.95961429,1.143829645e-06,6.842298049e-06,5.404892533e-07
42.7167,2.234037896,-0.3046634203,-32.10057162,3.928121785,0.3596881598,,73.95961435,1.130677091e-06,6.87664421e-06,5.431117875e-07
42.8167,2.234038023,-0.3046639143,-32.10057217,3.928121898,0.3596888482,,73.9596144,1.137140213e-06,6.927401244e-06,5.46962175e-07
42.9167,2.234038103,-0.3046642164,-32.10057239,3.928122002,0.3596894812,,73.95961445,1.141510031e-06,6.935119997e-06,5.474735886e-07
43.025,2.234038103,-0.3046646559,-32.10057203,3.928122136,0.359690294,,73.95961452,1.148878823e-06,7.014083259e-06,5.556270091e-07
43.1083,2.234038164,-0.3046650775,-32.10057173,3.928122222,0.3596908164,,73.95961456,1.147680728e-06,6.956357208e-06,5.493503793e-07
43.2167,2.234038362,-0.3046654744,-32.10057266,3.928122346,0.3596915714,,73.95961462,1.144057278e-06,6.974269497e-06,5.508151476e-07
43.325,2.234038437,-0.3046658237,-32.10057247,3.92812247,0.3596923279,,73.95961468,1.146667071e-06,6.987110623e-06,5.519759366e-07
43.4083,2.234038435,-0.3046661733,-32.10057184,3.928122566,0.3596929106,,73.95961472,1.150203202e-06,6.996068135e-06,5.526400651e-07
43.525,2.234038538,-0.3046667818,-32.10057262,3.9281227,0.3596937274,,73.95961479,1.150909793e-06,7.016135567e-06,5.538222099e-07
43.6333,2.234038613,-0.304667098,-32.10057271,3.928122825,0.3596944849,,73.95961485,1.153721572e-06,6.991206152e-06,5.521703181e-07
43.7083,2.234038676,-0.304667357,-32.10057245,3.928122921,0.3596950669,,73.95961489,1.146272296e-06,6.992911426e-06,5.523499644e-07
43.8167,2.234038728,-0.3046678551,-32.10057215,3.928123045,0.3596958232,,73.95961495,1.151197808e-06,7.010903302e-06,5.535220077e-07
43.9083,2.234038703,-0.3046679639,-32.10057159,3.928123151,0.3596964627,,73.959615,1.145377856e-06,6.939363201e-06,5.480008675e-07
44.0083,2.234038856,-0.3046684821,-32.10057192,3.928123265,0.3596971579,,73.95961506,1.148068722e-06,6.977695617e-06,5.512612923e-07
44.1083,2.234038912,-0.3046688652,-32.10057164,3.92812338,0.3596978548,,73.95961511,1.147258267e-06,6.995437238e-06,5.526757745e-07
44.2083,2.234038928,-0.3046693078,-32.10057173,3.928123495,0.3596985537,,73.95961517,1.154106561e-06,7.023377835e-06,5.567340868e-07
44.3083,2.234038995,-0.3046698319,-32.10057195,3.92812361,0.3596992526,,73.95961522,1.152153861e-06,6.996442281e-06,5.52334258e-07
44.4167,2.234039019,-0.3046701252,-32.10057165,3.928123725,0.3596999503,,73.95961528,1.146748073e-06,7.014567267e-06,5.538623195e-07
44.525,2.234039084,-0.3046706124,-32.10057168,3.92812385,0.3597007097,,73.95961534,1.154983465e-06,7.009974199e-06,5.5357611e-07
44.6333,2.234039229,-0.304670946,-32.10057209,3.928123975,0.3597014675,,73.9596154,1.15500861e-06,7.00710774e-06,5.53458827e-07
44.7083,2.234039267,-0.3046713006,-32.10057215,3.928124071,0.3597020515,,73.95961545,1.155530873e-06,7.009071342e-06,5.537202041e-07
44.8083,2.234039345,-0.3046716782,-32.10057199,3.928124185,0.3597027487,,73.9596155,1.150063783e-06,6.987065531e-06,5.518341713e-07
44.925,2.234039446,-0.3046720566,-32.10057264,3.928124319,0.3597035608,,73.95961556,1.142970523e-06,7.004238817e-06,5.531381191e-07
45.025,2.234039405,-0.3046724884,-32.10057184,3.928124434,0.3597042585,,73.95961562,1.160112322e-06,7.007134473e-06,5.534753033e-07
45.125,2.234039404,-0.3046727635,-32.10057119,3.928124549,0.3597049582,,73.95961567,1.149654526e-06,6.966117152e-06,5.507651215e-07
45.225,2.23403959,-0.3046733026,-32.10057196,3.928124664,0.3597056553,,73.95961573,1.155487564e-06,6.989648129e-06,5.521141748e-07
45.3083,2.234039637,-0.3046735572,-32.10057135,3.92812476,0.359706238,,73.95961577,1.155910128e-06,7.037006912e-06,5.587437385e-07
45.4083,2.234039752,-0.3046740304,-32.10057231,3.928124875,0.3597069373,,73.95961583,1.143586474e-06,6.992368856e-06,5.522170706e-07
45.5083,2.234039745,-0.3046744538,-32.10057165,3.92812499,0.3597076341,,73.95961588,1.148998352e-06,6.993326544e-06,5.52220215e-07
45.6167,2.23403984,-0.3046747739,-32.10057184,3.928125115,0.359708391,,73.95961594,1.155983878e-06,7.037081098e-06,5.590002283e-07
45.7167,2.234039859,-0.3046752172,-32.100572,3.92812523,0.3597090891,,73.959616,1.155087363e-06,6.988921715e-06,5.520146041e-07
45.8083,2.234039939,-0.3046753591,-32.10057125,3.928125335,0.3597097272,,73.95961605,1.144832562e-06,6.943347061e-06,5.481931078e-07
45.925,2.23404007,-0.3046761637,-32.10057214,3.928125469,0.3597105445,,73.95961611,1.16179781e-06,7.043257637e-06,5.563468615e-07
46.0333,2.234040063,-0.304676495,-32.10057194,3.928125584,0.3597112421,,73.95961617,1.15120965e-06,6.977332259e-06,5.509577872e-07
46.1167,2.234040093,-0.3046767408,-32.10057109,3.92812569,0.3597118836,,73.95961622,1.149202486e-06,7.027791824e-06,5.580290712e-07
46.225,2.234040254,-0.304677244,-32.10057168,3.928125815,0.3597126413,,73.95961628,1.152121259e-06,6.972228206e-06,5.508380795e-07
46.3083,2.234040286,-0.3046775248,-32.10057161,3.928125901,0.3597131624,,73.95961632,1.146872756e-06,6.964829316e-06,5.501121587e-07
46.4083,2.23404029,-0.3046780089,-32.10057185,3.928126025,0.3597139178,,73.95961638,1.146837375e-06,6.97739235e-06,5.509304643e-07
46.5083,2.23404038,-0.3046784029,-32.10057194,3.92812614,0.3597146135,,73.95961644,1.15159505e-06,6.991573937e-06,5.518920554e-07
46.6167,2.234040507,-0.3046788735,-32.10057159,3.928126264,0.3597153703,,73.95961649,1.149683413e-06,6.985518926e-06,5.51585393e-07
46.7083,2.234040514,-0.3046788435,-32.10057167,3.928126369,0.3597160072,,73.95961655,1.140767586e-06,6.933666632e-06,5.474936384e-07
46.8083,2.234040624,-0.3046795092,-32.10057197,3.928126483,0.3597167019,,73.9596166,1.146024662e-06,6.98447696e-06,5.514907932e-07
46.9083,2.234040626,-0.3046798764,-32.10057126,3.928126598,0.359717398,,73.95961666,1.1469642e-06,6.990989361e-06,5.520205897e-07
47.0083,2.234040733,-0.3046803377,-32.10057217,3.928126713,0.3597180954,,73.95961671,1.149787566e-06,6.991663796e-06,5.52067966e-07
47.1167,2.234040839,-0.3046807473,-32.10057187,3.928126837,0.3597188515,,73.95961677,1.148030125e-06,6.98466779e-06,5.5152313e-07
47.2333,2.234040895,-0.3046811999,-32.10057234,3.928126962,0.3597196077,,73.95961683,1.148753467e-06,7.009954502e-06,5.535030788e-07
47.3167,2.234040927,-0.304681601,-32.10057147,3.928127058,0.3597201911,,73.95961688,1.151779464e-06,6.971477224e-06,5.505801718e-07
47.4167,2.234041011,-0.3046819439,-32.10057192,3.928127173,0.3597208872,,73.95961693,1.144196425e-06,6.954064484e-06,5.489547884e-07
47.5167,2.234041081,-0.3046824045,-32.10057175,3.928127297,0.3597216419,,73.95961699,1.149916639e-06,6.970207805e-06,5.502902309e-07
47.6167,2.23404113,-0.3046826224,-32.10057212,3.928127412,0.3597223367,,73.95961705,1.154045668e-06,6.98431718e-06,5.516225632e-07
47.7083,2.234041159,-0.3046830564,-32.10057157,3.928127517,0.3597229739,,73.9596171,1.149867869e-06,6.973013918e-06,5.504920914e-07
47.8083,2.23404118,-0.3046834457,-32.10057158,3.928127631,0.3597236681,,73.95961715,1.139946191e-06,6.959097447e-06,5.494821397e-07
47.9167,2.234041392,-0.3046839301,-32.10057253,3.928127754,0.3597244226,,73.95961721,1.142673568e-06,6.991941841e-06,5.520145123e-07
48.025,2.234041417,-0.3046841488,-32.10057176,3.928127878,0.3597251774,,73.95961727,1.153561876e-06,7.009033487e-06,5.564576867e-07
48.125,2.234041504,-0.3046846058,-32.10057167,3.928127994,0.3597258748,,73.95961733,1.150110809e-06,6.990047068e-06,5.520741357e-07
48.2167,2.234041544,-0.304685063,-32.10057167,3.928128109,0.35972657,,73.95961738,1.139207714e-06,6.960827576e-06,5.495800775e-07
48.325,2.234041523,-0.3046855373,-32.10057176,3.928128223,0.3597272648,,73.95961744,1.145130355e-06,6.987342715e-06,5.515082361e-07
48.425,2.234041644,-0.3046858123,-32.10057202,3.928128338,0.3597279603,,73.95961749,1.148979517e-06,6.970908538e-06,5.506014896e-07
48.525,2.234041724,-0.304686215,-32.10057178,3.928128452,0.3597286558,,73.95961755,1.147142393e-06,6.988066078e-06,5.518317502e-07
48.625,2.234041735,-0.3046865839,-32.10057127,3.928128567,0.3597293519,,73.9596176,1.156029476e-06,6.992401066e-06,5.521817392e-07
48.7167,2.234041829,-0.3046869098,-32.10057199,3.928128672,0.3597299881,,73.95961765,1.13931437e-06,6.959665674e-06,5.494478681e-07
48.825,2.234041938,-0.3046873527,-32.10057172,3.928128795,0.3597307422,,73.95961771,1.14549247e-06,6.975514083e-06,5.510076178e-07
48.9083,2.23404193,-0.3046875677,-32.10057173,3.928128891,0.3597313224,,73.95961776,1.152874374e-06,6.997678779e-06,5.551432705e-07
49.0083,2.234042014,-0.3046880987,-32.10057196,3.928129006,0.3597320192,,73.95961781,1.146859512e-06,6.971469503e-06,5.506644392e-07
49.1167,2.234042091,-0.3046886093,-32.10057087,3.92812913,0.3597327742,,73.95961787,1.144588377e-06,6.98697064e-06,5.516714863e-07
49.2167,2.234042261,-0.3046889165,-32.10057252,3.928129244,0.3597334688,,73.95961793,1.134248026e-06,6.960664088e-06,5.496327684e-07
49.3167,2.234042265,-0.3046893732,-32.10057237,3.928129358,0.3597341624,,73.95961798,1.142055037e-06,6.964520706e-06,5.49733746e-07
49.425,2.234042234,-0.3046897127,-32.10057106,3.928129482,0.359734917,,73.95961804,1.148950078e-06,6.997233312e-06,5.554832247e-07
49.5167,2.234042363,-0.3046900034,-32.10057213,3.928129587,0.3597355534,,73.95961809,1.150147172e-06,6.966262614e-06,5.50272761e-07
49.6167,2.234042442,-0.3046904137,-32.10057201,3.928129702,0.359736248,,73.95961815,1.152665954e-06,6.977778695e-06,5.511512254e-07
49.7167,2.23404248,-0.3046908981,-32.10057195,3.928129817,0.3597369425,,73.9596182,1.142908244e-06,6.95278882e-06,5.489666531e-07
49.825,2.234042548,-0.3046912699,-32.10057164,3.92812994,0.3597376957,,73.95961826,1.138402246e-06,6.964298151e-06,5.50098697e-07
49.9083,2.234042545,-0.3046915717,-32.10057136,3.928130035,0.3597382749,,73.95961831,1.14412334e-06,6.981213548e-06,5.52663931e-07
50.0083,2.234042669,-0.3046920435,-32.10057164,3.928130149,0.3597389698,,73.95961836,1.145816768e-06,6.962526931e-06,5.497567125e-07
50.1083,2.234042762,-0.3046923909,-32.10057172,3.928130264,0.3597396638,,73.95961842,1.147598654e-06,6.957369925e-06,5.495374659e-07
50.2083,2.234042849,-0.3046927391,-32.10057207,3.928130378,0.3597403578,,73.95961847,1.151397367e-06,6.976290085e-06,5.509805974e-07
50.3167,2.234042864,-0.304693216,-32.10057125,3.928130503,0.3597411126,,73.95961853,1.146114429e-06,6.963429329e-06,5.501143363e-07
50.4167,2.234042941,-0.3046934789,-32.10057185,3.928130617,0.3597418052,,73.95961859,1.137844151e-06,6.950756746e-06,5.491111133e-07
50.5167,2.234042997,-0.3046939353,-32.10057166,3.92813073,0.3597424977,,73.95961864,1.142427496e-06,6.945000874e-06,5.485111968e-07
50.6333,2.234043019,-0.304694344,-32.10057123,3.928130844,0.3597431903,,73.95961869,1.139849171e-06,6.955491556e-06,5.491694069e-07
50.7083,2.234043124,-0.3046947669,-32.10057174,3.928130949,0.3597438317,,73.95961875,1.150694293e-06,6.968966317e-06,5.504759946e-07
50.8083,2.23404318,-0.3046950878,-32.10057138,3.928131064,0.3597445255,,73.9596188,1.149770538e-06,6.95015538e-06,5.489653782e-07
50.9083,2.234043245,-0.3046954841,-32.10057132,3.928131179,0.3597452192,,73.95961886,1.149452678e-06,6.955953757e-06,5.494120525e-07
51.0083,2.234043317,-0.304696108,-32.10057152,3.928131303,0.3597459723,,73.95961891,1.142122331e-06,6.971562237e-06,5.501961898e-07
51.1083,2.234043392,-0.3046962716,-32.10057152,3.928131407,0.359746606,,73.95961896,1.135704198e-06,6.941051973e-06,5.480233712e-07
51.2083,2.234043342,-0.304696602,-32.10057111,3.928131521,0.3597472974,,73.95961902,1.139763676e-06,6.95503008e-06,5.493152352e-07
51.3083,2.23404352,-0.304697036,-32.10057175,3.928131634,0.35974799,,73.95961907,1.140253363e-06,6.940751846e-06,5.481751631e-07
51.4167,2.234043503,-0.3046973876,-32.10057092,3.928131758,0.3597487409,,73.95961913,1.13739717e-06,6.98542702e-06,5.527628748e-07
51.525,2.234043676,-0.3046978168,-32.10057164,3.928131871,0.3597494353,,73.95961919,1.139332282e-06,6.949188159e-06,5.488334737e-07
51.6083,2.234043682,-0.3046981696,-32.10057157,3.928131976,0.3597500736,,73.95961924,1.148384828e-06,6.983555199e-06,5.533574392e-07
51.775,2.234043703,-0.3046983762,-32.10057131,3.928132005,0.3597502476,,73.95961925,1.15145664e-06,6.975795888e-06,5.508468917e-07
51.8167,2.234044041,-0.3047007369,-32.10057178,3.92813222,0.3597515868,,73.95961936,1.242184766e-06,7.058656554e-06,5.599325827e-07
51.925,2.234043917,-0.3046994685,-32.10057136,3.928132366,0.359752423,,73.95961942,1.10885945e-06,6.51409116e-06,5.132914369e-07
52.0083,2.234043921,-0.3046997566,-32.1005708,3.928132457,0.3597529668,,73.95961947,1.091849321e-06,6.594441559e-06,5.224902379e-07
52.1083,2.234043972,-0.3046999394,-32.10057078,3.928132566,0.3597536269,,73.95961952,1.095426684e-06,6.693134555e-06,5.308005768e-07
52.2083,2.234044039,-0.3047005415,-32.10057125,3.928132676,0.3597542955,,73.95961957,1.104273327e-06,6.740544222e-06,5.321676195e-07
52.3167,2.234044095,-0.3047010091,-32.10057105,3.928132796,0.3597550289,,73.95961963,1.11368323e-06,6.806066114e-06,5.374197332e-07
52.4167,2.23404418,-0.3047013246,-32.10057173,3.928132907,0.3597557083,,73.95961968,1.118786071e-06,6.835897464e-06,5.397939353e-07
52.5167,2.234044241,-0.3047017441,-32.10057115,3.928133019,0.3597563978,,73.95961974,1.131628122e-06,6.933450204e-06,5.505406037e-07
52.625,2.23404432,-0.3047021773,-32.10057088,3.928133142,0.3597571447,,73.9596198,1.138065572e-06,6.877522933e-06,5.433239284e-07
52.725,2.234044486,-0.3047025004,-32.10057206,3.928133256,0.3597578302,,73.95961985,1.128165107e-06,6.875102004e-06,5.430846256e-07
52.8083,2.234044479,-0.3047030096,-32.10057139,3.92813335,0.3597584036,,73.9596199,1.133870593e-06,6.907586637e-06,5.451827285e-07
52.9083,2.234044522,-0.3047032136,-32.10057131,3.928133463,0.3597590915,,73.95961995,1.140929722e-06,6.920039495e-06,5.465530178e-07
53.0083,2.234044569,-0.3047036126,-32.10057137,3.928133577,0.359759781,,73.95962001,1.148929294e-06,6.922707087e-06,5.468315476e-07
53.1083,2.234044623,-0.3047040001,-32.10057107,3.928133691,0.3597604715,,73.95962006,1.145180542e-06,6.924506578e-06,5.469754586e-07
53.225,2.23404471,-0.304704527,-32.10057198,3.928133824,0.3597612765,,73.95962013,1.137317418e-06,6.921479985e-06,5.46251656e-07
53.325,2.234044863,-0.3047048082,-32.10057225,3.928133937,0.3597619669,,73.95962018,1.139697021e-06,6.926885586e-06,5.471843729e-07
53.425,2.234044871,-0.3047052155,-32.10057152,3.928134051,0.3597626581,,73.95962023,1.13554171e-06,6.936428561e-06,5.478031727e-07
53.525,2.234044905,-0.3047056796,-32.10057132,3.928134165,0.3597633493,,73.95962029,1.134479182e-06,6.930443276e-06,5.47195373e-07
53.6167,2.234045047,-0.3047059798,-32.1005716,3.928134269,0.3597639821,,73.95962034,1.132082641e-06,6.929606662e-06,5.472754628e-07
53.7167,2.234044976,-0.3047065009,-32.10057141,3.928134382,0.3597646734,,73.95962039,1.142250953e-06,6.937153708e-06,5.475961586e-07
53.8167,2.23404505,-0.304706708,-32.10057114,3.928134496,0.3597653652,,73.95962045,1.141499709e-06,6.944344626e-06,5.486215012e-07
53.9083,2.23404512,-0.3047071167,-32.10057106,3.9281346,0.3597659981,,73.9596205,1.138314207e-06,6.933404577e-06,5.472393205e-07
54.0167,2.234045273,-0.3047075095,-32.10057187,3.928134713,0.3597666895,,73.95962055,1.135724965e-06,6.939896985e-06,5.480396657e-07
54.1167,2.234045232,-0.304707989,-32.10057147,3.928134837,0.3597674407,,73.95962061,1.139446787e-06,6.937138424e-06,5.477315124e-07
54.225,2.234045306,-0.304708271,-32.10057044,3.92813496,0.3597681909,,73.95962067,1.145362694e-06,6.96060439e-06,5.524155632e-07
54.325,2.234403165,-0.3047608858,-32.1005558,3.928133959,0.3597687012,,73.95962071,-0.0001026536757,-8.907443647e-06,-1.231513883e-06
54.4167,2.23545033,-0.3049024605,-32.10049195,3.928085239,0.3597619926,,73.95961993,-0.001157528371,-0.0001634470212,-1.880641754e-05
54.5167,2.236191872,-0.3049805666,-32.10044191,3.927904333,0.3597370661,,73.95961704,-0.003101119323,-0.0004181374393,-4.883453635e-05
54.625,2.236482043,-0.3049923756,-32.10042243,3.927418716,0.3596730121,,73.9596095,-0.006203987347,-0.0008022012734,-9.499983948e-05
54.725,2.236100622,-0.3049478675,-32.10067155,3.926653958,0.3595759212,,73.95959793,-0.009370182421,-0.001171291481,-0.0001403090425
54.825,2.235582956,-0.3050394964,-32.10081871,3.925571325,0.3594419496,,73.95958183,-0.01254065315,-0.001553195096,-0.0001866241267
54.9167,2.234557649,-0.3047360917,-32.10066711,3.924306825,0.3592855014,,73.95956303,-0.0152485644,-0.001859309997,-0.0002245940236
55.025,2.23324188,-0.3046112597,-32.10061701,3.922657945,0.3590851119,,73.9595388,-0.01786787325,-0.002172020973,-0.0002625872505
55.125,2.23179451,-0.3044360002,-32.10074425,3.920596367,0.3588342547,,73.95950848,-0.02030283836,-0.002475116885,-0.000298839862
55.225,2.230235072,-0.3042524219,-32.10085291,3.918479488,0.3585755706,,73.95947728,-0.02211699136,-0.002710797744,-0.0003265778535
55.325,2.228594217,-0.3040108968,-32.10088923,3.916200593,0.358294539,,73.9594435,-0.02351407044,-0.002910663377,-0.0003493290496
55.425,2.226933375,-0.3038484428,-32.10108016,3.913798454,0.3579971568,,73.95940782,-0.0245535856,-0.003046133928,-0.0003651758342
55.525,2.22523986,-0.3036413802,-32.10119764,3.9113084,0.3576874438,,73.95937074,-0.02524990367,-0.003150374594,-0.0003767893612
55.625,2.223529696,-0.3034333031,-32.10142036,3.908764044,0.3573690766,,73.9593327,-0.02561455429,-0.003216100385,-0.0003836668659
55.7333,2.221866472,-0.3032202845,-32.10149976,3.906196519,0.3570457934,,73.95929418,-0.02569824154,-0.003246266388,-0.0003863083785
55.8167,2.220521441,-0.3030393488,-32.1013934,3.904058139,0.3567750984,,73.959262,-0.02558649993,-0.003247015588,-0.0003856663571
55.9167,2.218795871,-0.3028191354,-32.10148021,3.901303507,0.35642447,,73.95922041,-0.0252063948,-0.003218481252,-0.0003813175981
56.0167,2.217217978,-0.3026228145,-32.10175365,3.898802802,0.3561047732,,73.95918255,-0.02473296652,-0.003167435118,-0.0003747500239
56.1167,2.215723813,-0.3024303928,-32.10185742,3.89635793,0.3557911526,,73.95914547,-0.02409014578,-0.003095910703,-0.000365718697
56.225,2.214278331,-0.3022453025,-32.10195715,3.89398286,0.3554854774,,73.95910939,-0.02332753722,-0.003007706466,-0.0003547793281
56.325,2.2128237,-0.3020458006,-32.10196926,3.89150239,0.3551646474,,73.9590716,-0.02236788973,-0.002901339267,-0.0003414087949
56.425,2.211542854,-0.3018847051,-32.10213254,3.889308406,0.3548799049,,73.9590381,-0.02143365404,-0.002783561417,-0.0003273073491
56.525,2.242870398,-0.3073370878,-32.10040181,3.886389144,0.3544247649,,73.95898763,-0.04440489743,-0.007502056279,-0.0008124333744
56.6333,2.246080635,-0.3064069581,-32.10001762,3.880130113,0.3533917424,,73.95887507,-0.0850862934,-0.0135602031,-0.001492044696
56.7083,2.238366847,-0.3048193946,-32.10045447,3.871748324,0.3520947261,,73.95873119,-0.1189078221,-0.01786097334,-0.00199812457
56.825,2.221529775,-0.3023488695,-32.10152115,3.856958766,0.3499324784,,73.95848753,-0.1551709957,-0.02213146808,-0.002510763484
56.925,2.201542081,-0.2998336138,-32.10240321,3.838793965,0.3473830573,,73.95819721,-0.1801559218,-0.0249083337,-0.002846474461
57.025,2.182555608,-0.2972037487,-32.10405047,3.820110201,0.3448243504,,73.9579043,-0.1930377695,-0.02617043225,-0.003001749881
57.125,2.164068592,-0.2947896313,-32.10547313,3.800554043,0.3421880391,,73.9576018,-0.1970672264,-0.02640089656,-0.003031295771
57.2333,2.146779375,-0.2926052915,-32.10615664,3.780945418,0.3395634365,,73.95730081,-0.1936888282,-0.02584724322,-0.002962748849
57.3083,2.133594773,-0.2909532714,-32.10672396,3.765059633,0.3374503112,,73.95705863,-0.1862117301,-0.02470874758,-0.00283086312
57.4083,2.119751238,-0.2891668676,-32.10782389,3.74701023,0.3350610503,,73.95678504,-0.1730174105,-0.02286005581,-0.002615715425
57.5083,2.108085864,-0.2875559639,-32.10910898,3.730439274,0.332877669,,73.95653529,-0.1566229526,-0.0205143636,-0.002348575286
57.6167,2.098219845,-0.2863994455,-32.10969843,3.715607709,0.3309375664,,73.95631333,-0.1382042196,-0.01805219169,-0.002063985189
57.7167,2.089976141,-0.2854919532,-32.11060718,3.701681634,0.3291174194,,73.9561055,-0.117220233,-0.01532645424,-0.001748002258
57.825,2.083638001,-0.2845153575,-32.11077694,3.690033689,0.3275954575,,73.95593204,-0.09628650662,-0.01257266741,-0.001432066438
57.925,2.079514438,-0.2839785589,-32.11128648,3.681264365,0.326449474,,73.95580163,-0.07770421286,-0.01015437872,-0.001154745436
58.0167,2.076865502,-0.2836152979,-32.11121602,3.674819097,0.325606816,,73.95570587,-0.0616480445,-0.008049495967,-0.0009147430493
58.1167,2.075218594,-0.2835547084,-32.11165764,3.669405634,0.3248991899,,73.95562552,-0.04552917971,-0.005955192168,-0.000675765091
58.2167,2.07439816,-0.2832434143,-32.11122334,3.665532471,0.3243925414,,73.95556805,-0.03100239962,-0.004043799763,-0.0004590503501
58.3167,2.074538936,-0.2833110273,-32.1113808,3.66303418,0.3240680188,,73.95553116,-0.01818244991,-0.002346509106,-0.0002672715321
58.4083,2.075278463,-0.2833845257,-32.11126337,3.661739173,0.3239022453,,73.95551223,-0.007069325609,-0.0008861324622,-0.0001019643068
58.5083,2.076454285,-0.2835703418,-32.11133813,3.661465746,0.3238703923,,73.95550846,0.001680299515,0.0002751051591,2.898808941e-05
58.6083,2.078099746,-0.2837302605,-32.11118422,3.662015192,0.3239469496,,73.95551695,0.009735800911,0.001319140477,0.0001477118125
58.7083,2.080044567,-0.2841457131,-32.11115466,3.663303472,0.3241209893,,73.95553646,0.0163542424,0.002188223902,0.0002461299338
58.8083,2.082253362,-0.2843171367,-32.11089041,3.665190611,0.3243750659,,73.95556499,0.02162692778,0.002924684119,0.0003278676367
58.9083,2.084619156,-0.2846130789,-32.11113399,3.667550339,0.3246929073,,73.95560067,0.02573513534,0.003465117074,0.0003891738584
59.0417,2.087361662,-0.2849990273,-32.11057217,3.670755341,0.3251255961,,73.95564923,0.02924378875,0.003952476864,0.0004435536215
59.1167,2.08961244,-0.2852922289,-32.11055823,3.673520256,0.3254978164,,73.95569107,0.03114802778,0.004204567286,0.0004722492293
59.2167,2.092058004,-0.2856533923,-32.11047294,3.676703315,0.3259280647,,73.95573938,0.03250715692,0.004394581923,0.0004935820988
59.3083,2.094245641,-0.2859232366,-32.11021442,3.679714616,0.3263347486,,73.95578509,0.03316995199,0.004486857919,0.0005040791895
59.4083,2.096613079,-0.2863820981,-32.11020428,3.683044306,0.3267845373,,73.95583565,0.03335950521,0.004499393642,0.0005062421085
59.5083,2.098880938,-0.2867096591,-32.11023857,3.686372043,0.327233998,,73.95588621,0.03310663056,0.004472861981,0.0005032250505
59.6083,2.100894475,-0.286725818,-32.10928559,3.689657015,0.3276782885,,73.95593619,0.03248340573,0.004389265908,0.0004940544009
59.7083,2.103084332,-0.2872895863,-32.10997004,3.692865791,0.328113207,,73.9559851,0.03156910654,0.004277494998,0.0004812533803
59.825,2.10525423,-0.2874318312,-32.109444,3.696478343,0.3286045688,,73.95604033,0.03021643981,0.004117056707,0.0004625934842
59.925,2.107065618,-0.2876351415,-32.10942377,3.699437887,0.3290058686,,73.9560855,0.02883987203,0.003916190547,0.0004407331076
60.025,2.108736407,-0.287896677,-32.10921377,3.702255644,0.3293892669,,73.95612863,0.02737148462,0.003737194359,0.0004199917111
60.125,2.110295897,-0.2884459161,-32.10913236,3.704921526,0.3297525173,,73.95616949,0.02581092471,0.003492651159,0.0003938519435
60.2083,2.111509862,-0.2882725376,-32.10902433,3.707022664,0.3300385753,,73.95620168,0.02447876717,0.003345884115,0.0003761541404
60.3167,2.11293339,-0.2885522743,-32.1089561,3.709586528,0.3303873205,,73.95624096,0.02273261495,0.003067829779,0.0003465176103
60.4167,2.114288983,-0.288798468,-32.1092185,3.711784476,0.3306855692,,73.95627459,0.02108852222,0.002869893455,0.0003233529685
60.5167,2.115340906,-0.2887126689,-32.10895441,3.713818874,0.3309623534,,73.95630579,0.01948077811,0.002649414252,0.0002986735954
60.6167,2.116294632,-0.2890214004,-32.10858451,3.715694824,0.3312182979,,73.95633461,0.01792379299,0.002423342639,0.0002738084375
60.7167,2.117278486,-0.2890474207,-32.10863252,3.717416685,0.3314531186,,73.95636107,0.01638976654,0.002260777798,0.0002537939393
60.8167,2.118100815,-0.2891639784,-32.1086233,3.718987348,0.3316693178,,73.95638536,0.01491528055,0.00205660322,0.0002309589415
60.9167,2.118837907,-0.2891922177,-32.10854406,3.720414244,0.3318642832,,73.95640733,0.01351443879,0.001837884397,0.0002074037968
61.0167,2.119488934,-0.2893248852,-32.10849478,3.721703897,0.3320401207,,73.95642715,0.01218741358,0.001681535649,0.000188877623
61.125,2.120099001,-0.2894525815,-32.10844524,3.722865136,0.3322012549,,73.95644522,0.01093999545,0.001523101099,0.0001705980063
61.225,2.120639267,-0.2894698781,-32.10843056,3.723984587,0.3323547005,,73.9564625,0.009651478321,0.001325264456,0.000149151911
61.325,2.121099468,-0.2895020826,-32.10834532,3.724900698,0.3324794787,,73.95647658,0.008591253066,0.001169331568,0.0001320137685
61.4167,2.121449474,-0.2896040688,-32.10833793,3.725647664,0.3325816667,,73.9564881,0.007642391929,0.001069230052,0.0001196200856
61.5167,2.121862437,-0.2898462364,-32.1086557,3.726367356,0.3326815644,,73.9564993,0.006690574389,0.000927691118,0.0001041050247
61.6167,2.122126976,-0.2895776891,-32.10864003,3.726996898,0.3327665759,,73.95650893,0.005851477542,0.0007810877264,8.879521527e-05
61.7167,2.122405198,-0.2898635656,-32.10839857,3.72754398,0.3328426692,,73.95651746,0.005022990946,0.0006829855266,7.716284362e-05
61.825,2.122514485,-0.2897167698,-32.10823913,3.728046152,0.3329102709,,73.95652512,0.004222160094,0.0006025238878,6.699408011e-05
61.925,2.122696693,-0.2898126723,-32.10826936,3.728438753,0.3329675643,,73.95653145,0.003585475891,0.0005294681822,5.822930616e-05
62.0083,2.122891373,-0.2900115082,-32.10857882,3.72871893,0.333008942,,73.956536,0.003091670422,0.0004407913322,4.902806077e-05
62.1083,2.122893879,-0.2897791504,-32.10821421,3.729001677,0.3330469218,,73.95654031,0.002546444688,0.0003655997035,4.0577479e-05
62.2083,2.122997724,-0.2898553368,-32.10824803,3.729234689,0.3330815234,,73.95654411,0.002081563138,0.0003153229487,3.440478554e-05
62.3167,2.123088568,-0.2898703651,-32.10824124,3.729436944,0.3331122492,,73.95654746,0.001624449992,0.0002475538313,2.696159467e-05
62.4167,2.123112879,-0.2898759626,-32.10823941,3.729581276,0.3331343762,,73.95654986,0.001241259586,0.0001917677436,2.07939401e-05
62.5167,2.123129183,-0.2898789366,-32.10823811,3.729689973,0.3331512783,,73.95655169,0.0009138800967,0.0001435881379,1.548812661e-05
62.625,2.123133789,-0.2898798927,-32.10823623,3.729773365,0.3331645368,,73.95655312,0.0006110614693,9.91925368e-05,1.059438302e-05
62.7333,2.903018907,-0.138737303,-32.05891199,3.73043937,0.3331723394,,73.95655715,0.135567145,-0.02043779101,-0.009884457075
62.8083,3.054884674,-0.2780113701,-32.04043349,3.75342075,0.3331570706,,73.95652286,0.3545143902,-0.000127936003,0.001829834238
62.9167,3.10131463,-0.3241122109,-32.03062124,3.790198158,0.3331603321,,73.95647813,0.302309556,0.00402834777,-0.003175025798
63.0167,3.114576458,-0.3291414683,-32.02921855,3.816782252,0.3332034085,,73.95622561,0.2246289701,0.003754351477,-0.002861260704
63.1167,3.122030268,-0.3352366758,-32.02724068,3.836264284,0.3332120826,,73.95583191,0.1628146141,0.004296700736,-0.004284366545
63.225,3.128720419,-0.2380542428,-32.03757398,3.85132482,0.3332535345,,73.95524964,0.1143169282,-0.004828245157,-0.007474340036
63.325,3.132233283,-0.2315812555,-32.03754683,3.861207583,0.3332543512,,73.95457126,0.08241094211,-0.00546089346,-0.008507554624
63.4083,3.134308289,-0.2260313093,-32.03786617,3.867297475,0.3332525325,,73.95391848,0.06270178964,-0.005994905193,-0.009431341051
63.5083,3.136105926,-0.2199496714,-32.03793173,3.87271889,0.3332461924,,73.95304277,0.04521728572,-0.006666165597,-0.0104221521
63.6167,3.135818582,-0.3663324889,-32.02144053,3.876899974,0.3331779811,,73.95197762,0.03169468837,0.007033742458,-0.009100283068
63.725,3.138121258,-0.2030145939,-32.03941719,3.879832187,0.3332205236,,73.95078951,0.02226276113,-0.008225817496,-0.01300824515
63.825,3.137943369,-0.1762376521,-32.0432025,3.881759064,0.3331858906,,73.94940348,0.0161173643,-0.01070289858,-0.01802938371
63.9083,3.137610838,-0.2265190573,-32.04300335,3.882948418,0.3330942715,,73.94828704,0.0121653134,-0.002399110019,-0.006407507103
64.0083,3.139150325,-0.1908276687,-32.04225409,3.884011789,0.3331603506,,73.94669704,0.008849816597,-0.00868502369,-0.01544130888
64.1083,3.141452586,-0.1687292289,-32.03987204,3.884780017,0.3330851866,,73.94498221,0.006496545936,-0.01428904775,-0.02389865377
64.2083,3.141562519,-0.1845666711,-32.04185047,3.885336341,0.3330599298,,73.94322566,0.00474376648,-0.01019500499,-0.02722659727
64.3167,3.136653653,-0.409968332,-32.01667785,3.885775957,0.3329957053,,73.9406525,0.00333363361,0.01089999489,-0.02284671744
64.4167,3.136089959,-0.4212764235,-32.01507843,3.886070295,0.3329623647,,73.93804605,0.002468825041,0.0118151603,-0.02412773796
64.5167,3.135605558,-0.4349114307,-32.01346581,3.886288412,0.3329196999,,73.93519662,0.001797250165,0.01336263481,-0.02754417296
64.6167,3.1351952,-0.4410835024,-32.01351366,3.886451654,0.3328833819,,73.93207933,0.001374570816,0.01387843543,-0.03015798415
64.7167,3.134670982,-0.4483009183,-32.01247466,3.886576499,0.3328491148,,73.9286786,0.001049585703,0.01456323609,-0.03280830894
64.825,3.137943738,-0.1225913937,-32.04870965,3.886674323,0.3329443659,,73.924689,0.0007035716154,-0.01587750375,-0.0416551543
64.925,3.137552265,-0.1152486768,-32.05048331,3.886729214,0.3329174294,,73.92066897,0.0004099335837,-0.01657664101,-0.044910734
65.0083,3.137004211,-0.1095683554,-32.05051856,3.88675324,0.3328945779,,73.91707959,0.0002161324483,-0.01716322501,-0.04770458615
65.1083,3.136456955,-0.1023585648,-32.05116871,3.886765467,0.3328663385,,73.91247607,6.883650435e-05,-0.01778190339,-0.05109199009
65.2167,3.130960803,-0.4847547619,-32.00818751,3.886759676,0.3326892091,,73.9070854,-0.000171593721,0.01795923579,-0.04808403292
65.3083,3.130546833,-0.4739407309,-32.00948194,3.886746743,0.3326731091,,73.90275223,-0.0002238255577,0.01689277,-0.04934106597
65.4167,3.130227465,-0.4448162578,-32.01282824,3.886714267,0.3326648612,,73.89665193,-0.000378628229,0.01419458191,-0.05028821157
65.5167,3.129715834,-0.4261433564,-32.01419231,3.886677044,0.332653475,,73.89139749,-0.0004214690668,0.01243113214,-0.05123041917
65.6167,3.128990826,-0.4104393957,-32.01644326,3.886630634,0.3326424909,,73.88608368,-0.0005270243069,0.01112247672,-0.05291378455
65.7417,3.128033651,-0.1746305131,-32.04438697,3.886572674,0.33274593,,73.87997663,-0.0005664658297,-0.01100219035,-0.06016636047
65.8167,3.121007871,-0.4106688741,-32.01822932,3.886516019,0.3326650881,,73.87438645,-0.0007233649616,0.01137816237,-0.06208594659
65.9167,3.112219136,-0.4098669206,-32.01841807,3.886430732,0.3327006914,,73.86792302,-0.001050716046,0.01158888325,-0.06603811644
66.0167,3.100246003,-0.4081259676,-32.01907427,3.886309515,0.3327716313,,73.86109278,-0.001490293426,0.01191217263,-0.06970171201
66.125,3.085233937,-0.4058438092,-32.02074691,3.886140114,0.3328889598,,73.85393176,-0.001918229763,0.01211484459,-0.07291469087
66.2333,3.066624116,-0.2029805383,-32.0474598,3.885907352,0.3331434629,,73.84587818,-0.002474061508,-0.006608085724,-0.07547014088
66.3083,3.048654713,-0.2399887097,-32.04364893,3.885685848,0.3332971568,,73.83959619,-0.002906266307,-0.002678121554,-0.07562209096
66.4167,3.022099106,-0.3103838066,-32.03620449,3.885341018,0.3335438207,,73.83143597,-0.00349403775,0.004491054508,-0.07498339365
66.5167,2.995113792,-0.297574211,-32.04086984,3.884963334,0.3338633834,,73.82397356,-0.004105231906,0.003821434487,-0.07407382567
66.625,2.965155976,-0.2945392524,-32.04321399,3.884526226,0.3342360905,,73.81662626,-0.004680322988,0.004082064562,-0.07269504683
66.725,2.929768305,-0.2943311345,-32.04577449,3.883990188,0.3347036011,,73.80884647,-0.005285281256,0.004632586176,-0.07072056096
66.825,2.894845014,-0.2946208436,-32.04936882,3.883446317,0.3351937289,,73.80187503,-0.005694484104,0.005172617438,-0.06848095716
66.9083,2.864088639,-0.2947837981,-32.05081796,3.882965783,0.3356422201,,73.79624819,-0.005900381371,0.005623796529,-0.06632954972
67.0083,2.825891922,-0.2950133561,-32.05339996,3.882363574,0.3362269126,,73.78974621,-0.006171041136,0.006081382756,-0.06344141801
67.1083,2.787165191,-0.2956553777,-32.05717021,3.881735778,0.3368537731,,73.78354621,-0.006417268138,0.006430824008,-0.06027923337
67.2167,2.7449159,-0.2957361866,-32.06066513,3.881030092,0.3375714615,,73.77719831,-0.006601391573,0.006769308193,-0.05662477302
67.3167,2.706425151,-0.2960930467,-32.06348638,3.880365863,0.3382602075,,73.77169705,-0.006719416642,0.006977981729,-0.05311979725
67.4167,2.668758224,-0.2963456412,-32.06581108,3.879694723,0.3389634659,,73.7665499,-0.006721678785,0.007105571927,-0.04954270337
67.5167,2.632337866,-0.2967544317,-32.06876298,3.87902218,0.3396725316,,73.76176124,-0.006733823589,0.007069802587,-0.04595826765
67.625,2.594337274,-0.2969389598,-32.07141087,3.878298954,0.3404367445,,73.75697656,-0.006588343964,0.007056545442,-0.042112899
67.725,2.561168897,-0.2970054112,-32.0746254,3.877648117,0.3411368005,,73.7529264,-0.006418448392,0.006955963465,-0.03864054113
67.8083,2.534756468,-0.2974728509,-32.07644967,3.877121332,0.341706636,,73.74981326,-0.006230793854,0.006747704359,-0.0358308184
67.9167,2.502303076,-0.2977194787,-32.07917904,3.876462007,0.3424242666,,73.74611037,-0.005948446723,0.006480536301,-0.03231153177
68.0167,2.474276588,-0.2980525036,-32.08166282,3.875878909,0.343062086,,73.74302371,-0.005705719869,0.006222178188,-0.02921557883
68.125,2.446044851,-0.2980551776,-32.0838515,3.875280775,0.3437214913,,73.74002039,-0.00532910272,0.005887800084,-0.02604560431
68.225,2.42181519,-0.2983369864,-32.0850137,3.874761233,0.3442968621,,73.73754448,-0.005029989534,0.005557655145,-0.02329932115
68.325,2.399513276,-0.2983259254,-32.08786868,3.874275321,0.3448398689,,73.73533515,-0.004686960854,0.005282519904,-0.02072827185
68.425,2.378927157,-0.2985293267,-32.08872013,3.87382305,0.3453502988,,73.73337456,-0.004378406851,0.004934336194,-0.01833895673
68.5083,2.363111595,-0.298570093,-32.08975897,3.873470872,0.345750075,,73.73191776,-0.004060045722,0.004659774058,-0.01648464574
68.6083,2.345703063,-0.2987703885,-32.09101616,3.873079681,0.3462013644,,73.73036665,-0.003773636551,0.004341489504,-0.01442090951
68.7083,2.329809732,-0.2986890421,-32.09265661,3.872718808,0.3466180388,,73.72901376,-0.003426816311,0.004052450557,-0.01253124792
68.8167,2.314320736,-0.2988380658,-32.09370536,3.872362423,0.3470343326,,73.72775206,-0.003136057507,0.003646074052,-0.01067675013
68.925,2.300552669,-0.2991424888,-32.0939454,3.872040291,0.3474142211,,73.72668192,-0.002830686592,0.003317302799,-0.009009413934
69.025,2.289332693,-0.2992391765,-32.09574182,3.871772122,0.3477327584,,73.72584672,-0.002563202421,0.003014669627,-0.007631311505
69.125,2.279282408,-0.2991914712,-32.09649992,3.871529463,0.3480221176,,73.72514259,-0.002321630733,0.00274388069,-0.006398620198
69.225,2.27042107,-0.2992368276,-32.09669527,3.87131159,0.3482830854,,73.72455529,-0.002053475473,0.002463844109,-0.00530515422
69.3083,2.265061992,-0.2993730144,-32.09824566,3.871148718,0.3484799695,,73.72414491,-0.001889068338,0.002211378099,-0.00451827044
69.4083,2.27036507,-0.3001411923,-32.09732619,3.870980435,0.3486754418,,73.72372262,-0.001361826037,0.001470429068,-0.004086457063
69.5667,2.289980734,-0.3008340683,-32.09550148,3.870903739,0.348752846,,73.72340239,-0.0005364265837,0.000321577222,-0.004726047937
69.625,2.357465934,-0.3018666578,-32.09096543,3.870973774,0.3486066423,,73.72256396,0.001914558209,-0.002964856667,-0.008801953236
69.725,2.442745168,-0.3025700353,-32.0837687,3.871311812,0.3481191395,,73.72131654,0.004677989827,-0.006409259497,-0.01523436696
69.825,2.546240694,-0.3031006961,-32.07669178,3.871911012,0.347312335,,73.71942118,0.007674394054,-0.01012460335,-0.0238608452
69.925,2.673787989,-0.3034553096,-32.06717536,3.872836855,0.3461240054,,73.71653877,0.01118276043,-0.01405304868,-0.03523146565
70.0083,2.798077513,-0.3038764534,-32.05700796,3.873889845,0.3448244197,,73.71317964,0.01442463377,-0.01754146256,-0.04692730748
70.1083,2.968359869,-0.3039675209,-32.04344737,3.875524056,0.3428734942,,73.70774243,0.0186377393,-0.02180857153,-0.06376303885
70.2083,3.160237837,-0.3041066815,-32.02892778,3.877589368,0.3404937477,,73.70047972,0.02307120532,-0.02611940175,-0.08376469322
70.3167,3.389911801,-0.3043796896,-32.01110119,3.880336332,0.337433307,,73.69017009,0.02801555057,-0.03064497688,-0.1092010643
70.425,3.638679296,-0.3047197681,-31.99190269,3.883616527,0.3338968,,73.67690698,0.0328606882,-0.03488286656,-0.1386130628
70.5083,3.819850207,-0.305073049,-31.97782576,3.886191741,0.3311897429,,73.66576654,0.03610933532,-0.03758342351,-0.1613414079
70.6083,4.091129138,-0.3057187726,-31.95600378,3.890327385,0.3269460668,,73.64651296,0.0404660763,-0.04090988739,-0.1976003261
70.7083,4.317149064,-0.3058632812,-31.91507552,3.895425522,0.3227097711,,73.6250929,0.1050924051,-0.04376788535,-0.2340594581
70.8167,4.628394537,-0.3085675852,-31.91029393,3.910247461,0.3178899912,,73.59763457,0.1571354392,-0.04532420965,-0.2769334399
70.9167,4.90392614,-0.3106606231,-31.89249723,3.918711099,0.3133301505,,73.56788422,0.02828425149,-0.04673745842,-0.3222858261
71.0167,5.145577284,-0.3136862171,-31.87478749,3.920736896,0.3086142652,,73.53350095,0.0182176602,-0.04739125028,-0.3697596034
71.1167,5.388977569,-0.3177306061,-31.85495984,3.922877632,0.3038849863,,73.49426062,0.0256769783,-0.04707460719,-0.4196455022
71.2167,5.624746892,-0.3228912685,-31.83595769,3.925798273,0.2992110023,,73.44992229,0.03295487593,-0.0462336972,-0.4718876646
71.325,5.868131202,-0.3296563266,-31.81710414,3.929659694,0.2942760461,,73.39587592,0.03827513459,-0.04467828138,-0.5308435549
71.4083,6.028168549,-0.3351220754,-31.80357615,3.932615937,0.2909704151,,73.35466879,0.04059753013,-0.04327700138,-0.5728725503
71.5083,6.260250724,-0.4211816194,-31.82692688,3.936398784,0.284617598,,73.28946752,0.005163158275,-0.1092901128,-0.637114624
71.6167,6.435838096,-0.2192848434,-31.81879757,3.933646225,0.2783407043,,73.21741115,-0.02476549766,0.04517383206,-0.6974675782
71.7167,6.607235251,-0.395515528,-31.76645966,3.935272848,0.2785509732,,73.14486621,0.05654585161,-0.02617667182,-0.7572119634
71.8167,6.774293797,-0.3862762253,-31.74834525,3.941613719,0.2756192323,,73.0664865,0.06519874526,-0.03098061488,-0.8153591471
71.925,6.932313289,-0.3953794798,-31.73434136,3.948348378,0.2723186144,,72.97500802,0.05792592169,-0.02922735187,-0.8782663088
72.025,7.063213372,-0.4092159669,-31.72207282,3.953799241,0.2695356787,,72.8845531,0.05057834972,-0.02606020214,-0.9354732283
72.125,7.18139064,-0.4252299004,-31.71234368,3.958559848,0.2670891762,,72.78843596,0.04418096762,-0.02263196379,-0.991328502
72.225,7.27544864,-0.4412333874,-31.77907192,3.96272506,0.2649859819,,72.68681166,0.0444741815,-0.01968596817,-1.045277825
72.3083,7.363261728,-0.4574389497,-31.69692121,3.967583063,0.2634752524,,72.59809009,0.06739069557,-0.01634466376,-1.088206881
72.4167,7.460757112,-0.4779577179,-31.68779909,3.975086935,0.2618774263,,72.4775009,0.06960352976,-0.01297852494,-1.141754512
72.5333,7.542443593,-0.5084495413,-31.68160782,3.981365272,0.2585587882,,72.35126125,0.0479535505,-0.0380380763,-1.1922321
72.6167,7.602244364,-0.5170808625,-31.67594343,3.985531992,0.2550280265,,72.24022763,0.04329536205,-0.03843956496,-1.234153384
72.7167,7.660822094,-0.5333790959,-31.67128478,3.989754892,0.2512600963,,72.11474123,0.0410885339,-0.03655264336,-1.279282471
72.8167,7.712205282,-0.5529242639,-31.66702548,3.993787443,0.247697139,,71.98479113,0.03938106917,-0.03467322561,-1.32320756
72.9,7.753103849,-0.5474023885,-31.68478173,3.996755402,0.2455405875,,71.87320808,0.02388470311,-0.006038065228,-1.358309195
73,7.785376655,-0.5837734338,-31.66183188,3.998433818,0.2454066976,,71.73544673,0.01177969907,0.002673421849,-1.400056299
73.1,7.81721626,-0.6127200221,-31.65888309,3.999456344,0.2458951329,,71.59362743,0.00879212571,0.007041077047,-1.43929333
73.2,7.844474629,-0.6382829326,-31.65663793,4.000259734,0.2467438888,,71.44799806,0.007108752498,0.01018571592,-1.476099128
73.3083,7.8689705,-0.6643213736,-31.65441097,4.000951432,0.248039172,,71.28618461,0.005464343997,0.01412859972,-1.513948805
73.4083,7.887193358,-0.6898784426,-31.65293441,4.00143568,0.2496156345,,71.13324526,0.004034536064,0.0169999843,-1.547381045
73.5167,7.901896853,-0.7150402432,-31.65219037,4.001776671,0.2513908111,,70.97707104,0.002566210863,0.01877657419,-1.578398588
73.6167,7.913994326,-0.7431011251,-31.65195979,4.00198472,0.253489176,,70.80451083,0.001054419052,0.01982394283,-1.609255445
73.7167,7.921960689,-0.7679707902,-31.65027768,4.002034003,0.2555390023,,70.64238106,-0.0002814118633,0.02091539572,-1.635189305
73.8167,7.927334926,-0.7929468115,-31.65010614,4.001952211,0.2576457438,,70.47778179,-0.001527682609,0.02123683073,-1.658389923
73.9,7.930001809,-0.8131669188,-31.64968626,4.001790608,0.2594253318,,70.33892738,-0.002563278617,0.02149862772,-1.675655672
74.0083,6.738596663,-0.801372576,-31.7414085,3.991033645,0.2613109056,,70.16485925,-0.3667205297,0.005459470689,-1.352374884
74.1167,5.323926799,-0.6714386719,-31.85277679,3.930593298,0.2603061226,,70.07130183,-0.8739615064,-0.03339199863,-0.3331979144
74.2167,5.09005409,-0.3625738039,-31.87824468,3.822791125,0.2537065519,,70.10791402,-0.929690543,-0.09522542779,1.034534609
74.3167,5.646325555,0.02102536509,-31.84334128,3.749414441,0.2411621564,,70.24954476,-0.4946664168,-0.1589844711,1.782602367
74.4167,6.237319612,0.3414448647,-31.80375928,3.7179747,0.2232407877,,70.44636545,-0.1162918591,-0.1952789482,2.118700013
74.5167,6.83943216,0.5382943099,-31.75892642,3.720021351,0.2034030593,,70.66071789,0.1697586677,-0.1952003936,2.114516648
74.6167,7.457249462,0.6026974822,-31.71221703,3.74723926,0.1850043985,,70.86097468,0.3854881973,-0.1648777937,1.818890505
74.7167,7.82768624,0.5382772759,-31.67805694,3.792732007,0.1708313656,,71.02014597,0.4883238647,-0.1120320021,1.312315787
74.8167,7.860299973,0.3912608764,-31.66999008,3.8376438,0.1623281746,,71.13000222,0.392470504,-0.05418161835,0.8606103546
74.9,7.868000445,0.255585018,-31.66589344,3.866988231,0.1593954341,,71.18943856,0.3050992886,-0.01361209353,0.5416776454
75.0083,7.871801597,0.09779203311,-31.66385986,3.893468256,0.1598098451,,71.22822096,0.2212968384,0.02282513632,0.2162147047
75.1083,7.872608147,-0.05860478335,-31.66060118,3.913919119,0.1636954611,,71.23647209,0.1546373794,0.04888609342,-0.07739570193
75.2083,7.871832228,-0.1869051417,-31.66046302,3.92722941,0.1693279817,,71.21807669,0.1099760128,0.06321050388,-0.303047721
75.3083,7.241562062,-0.2947914226,-31.70623785,3.926300869,0.1759952741,,71.18031179,-0.2069972649,0.06532720875,-0.3748696427
75.4083,5.915924244,-0.1918410152,-31.34983903,3.880768159,0.181680405,,71.16518957,-0.7250423751,0.08394640593,0.234060436
75.5083,5.42632661,-0.1274884777,-31.84434,3.798718688,0.1852195596,,71.2361327,-0.8147784579,-0.01098793051,1.262253107
75.6083,5.897453756,0.2067802734,-31.82158823,3.732784868,0.1807533607,,71.39719496,-0.4589963641,-0.08439683142,1.95112982
75.7167,6.410988103,0.5337233555,-31.78736885,3.702590741,0.1694660243,,71.61049943,-0.1283748342,-0.1408465547,2.287839153
75.8167,6.978722884,0.7825468005,-31.74630039,3.703047049,0.1527065454,,71.86227127,0.1408301749,-0.1633151378,2.308471404
75.9167,7.510608228,0.8830668057,-31.70613271,3.725781052,0.1367658336,,72.08361095,0.3227577101,-0.1493077522,2.053942645
76.0167,7.783761155,0.851784681,-31.67977089,3.76326492,0.1234774171,,72.26936059,0.3922803686,-0.1101131779,1.6186672
76.1167,7.806706114,0.7286309946,-31.67354207,3.798960403,0.1147488882,,72.41266271,0.3085259555,-0.06018118114,1.22421428
76.2167,7.811840363,0.5737838954,-31.67052804,3.825790682,0.1108856371,,72.51913509,0.2238245297,-0.01479262524,0.8853343224
76.3167,7.812362607,0.4118979144,-31.66708073,3.845041692,0.111124471,,72.59397437,0.1587564881,0.0198132283,0.5945267851
76.4167,7.810742472,0.2552574036,-31.66617816,3.858597558,0.1141500798,,72.64178138,0.1106009808,0.03937013672,0.3482601763
76.5,7.808658225,0.1503674158,-31.66569454,3.8659403,0.1175523737,,72.66249936,0.08305180684,0.05264513653,0.1894585246
76.6083,7.804557428,0.0102026502,-31.66574369,3.873354162,0.1239877577,,72.67279454,0.05294668071,0.06589609111,-0.00924674902
76.7083,7.799600479,-0.1148174025,-31.66706211,3.877949899,0.1315048499,,72.66318163,0.03124096896,0.07244555107,-0.1764643167
76.8167,7.793667703,-0.2248515865,-31.66564217,3.880519641,0.1394910374,,72.63684693,0.01561216392,0.07431244429,-0.3165634838
76.9167,7.78772642,-0.3146766674,-31.6665715,3.881575778,0.1468853418,,72.60006428,0.004970370878,0.07312118349,-0.4253046975
77.0167,7.781469418,-0.39408238,-31.66709235,3.881699305,0.1540755303,,72.55321845,-0.003000557835,0.07023035211,-0.5167771934
77.1167,7.501386381,-0.4628496167,-31.68682807,3.880901646,0.1609105763,,72.49806517,-0.05640095264,0.0642173166,-0.5619359767
77.2167,6.299006349,-0.4654116262,-31.77692499,3.856971641,0.1664557638,,72.4585556,-0.4823833599,0.0412868269,-0.07811976969
77.3167,6.170493555,-0.3113663358,-31.79247453,3.798272954,0.1687569393,,72.48863636,-0.5669178737,-0.002123145706,0.704837868
77.4167,6.501144359,-0.03856429436,-31.77492005,3.752908311,0.1658973372,,72.58481367,-0.3133721692,-0.06078666104,1.218115148
77.5,6.79986173,0.2015265487,-31.75366957,3.734235952,0.1591376067,,72.69656388,-0.1191159308,-0.1035425823,1.459308847
77.6083,7.158296241,0.4438038394,-31.72971936,3.7305866,0.1471550224,,72.84865411,0.0540225735,-0.1341526595,1.555081725
77.7083,7.5469792,0.6114767069,-31.69974758,3.743830466,0.1321354655,,73.01308585,0.191612875,-0.1385923403,1.436529398
77.8083,7.697254011,0.6620129998,-31.68510929,3.766038108,0.1189818853,,73.14592798,0.2268020623,-0.1201943781,1.197672407
77.9167,7.70571065,0.6306225397,-31.6799091,3.787713907,0.1075914392,,73.26361289,0.165721225,-0.08648752251,0.9622741689
78.0167,7.70373107,0.5606494112,-31.67882911,3.801785363,0.100462389,,73.35099653,0.113215729,-0.05380277752,0.7737740145
78.1167,7.69920106,0.4723945659,-31.67813362,3.811199997,0.09644236548,,73.42068725,0.0735211846,-0.02507329098,0.6100170708
78.2167,7.693308128,0.3778219332,-31.6774065,3.817153521,0.09504963302,,73.47503593,0.0443921897,-0.001876386979,0.4683484302
78.3167,7.645403372,0.2854674001,-31.96576353,3.820572543,0.09570755835,,73.51613836,0.04525054155,0.01414995405,0.3465432819
78.4167,7.674870814,0.1735604445,-31.67870411,3.827206992,0.09042646845,,73.545731,0.0727293535,-0.06616535258,0.2406951718
78.5167,7.672796024,0.1029000447,-31.6791664,3.834168208,0.08395708654,,73.56566325,0.06485501744,-0.06327588556,0.1527892855
78.6167,7.194200158,0.06466325067,-31.72175799,3.836243824,0.0828232726,,73.57876439,-0.1140305933,0.02959312933,0.1713576317
78.7,6.337405885,0.05660648651,-31.77455766,3.814447758,0.08507705531,,73.60595205,-0.447984495,0.02052876075,0.5914440418
78.8,6.509147898,0.1776579812,-31.76841005,3.768519807,0.08603915507,,73.69253504,-0.3963205926,-0.008205833537,1.149165424
78.9,6.766231879,0.388712841,-31.75420367,3.737772979,0.08322551888,,73.82542165,-0.2036756849,-0.05186759439,1.506692081
79,7.035368072,0.6120754937,-31.73671908,3.724958166,0.07645561032,,73.98576143,-0.04614025163,-0.08451945409,1.685443731
79.1,7.304703029,0.7968053849,-31.71748962,3.725917485,0.06684254812,,74.15643071,0.06964196249,-0.1065005455,1.703354957
79.2167,7.570173655,0.9129742607,-31.6965618,3.736872054,0.05586083867,,74.32216029,0.1526077018,-0.1135080508,1.577658538
79.325,7.594623531,0.9640779879,-31.69211434,3.754650665,0.04360319414,,74.49490137,0.1327353397,-0.09451902891,1.372941048
79.4,7.592744443,0.9571143369,-31.6902729,3.764297335,0.03610889371,,74.60448231,0.09524412463,-0.07775737675,1.24616809
79.5,7.58671174,0.9141825718,-31.68898698,3.772058029,0.02915677793,,74.72281822,0.05826879569,-0.05790725613,1.112575267
79.6,7.579369349,0.8584089854,-31.68751617,3.776569138,0.02439511918,,74.82865124,0.03081055251,-0.03601194585,0.9968875475
79.7,7.571158745,0.7937547161,-31.68823332,3.77868886,0.02160798263,,74.9236639,0.01070884146,-0.02004317754,0.8978250563
79.8,7.562393133,0.7282234185,-31.68897234,3.779063208,0.01996852023,,75.00967545,-0.003967633321,-0.009634870813,0.8180305899
79.9083,7.552518676,0.6610792736,-31.68938239,3.778034498,0.01959267886,,75.09459157,-0.01554885442,0.002878672673,0.7460916019
80.0167,6.888782772,0.6108228948,-31.73488063,3.770091648,0.02017380476,,75.17732863,-0.2155519163,0.00566949353,0.8825970665
80.1,6.727937493,0.6316060604,-31.75071605,3.745704813,0.02046124727,,75.26417096,-0.3179485213,-0.0006127074457,1.228301508
80.2167,6.893823966,0.7485050252,-31.74267053,3.716929248,0.01928730936,,75.41479088,-0.193832329,-0.02495404031,1.551245531
80.3,7.018744351,0.8717573949,-31.73910181,3.691526554,0.01640120087,,75.55004891,-0.3646546736,-0.04827304319,1.70010485
80.4083,7.165650237,1.0228488,-31.70981035,3.668214609,0.01025639609,,75.74043524,-0.0537878186,-0.07367557289,1.804255011
80.5167,7.381153272,1.162405134,-31.71210374,3.669003716,0.0008312633661,,75.95118177,0.05664233856,-0.0858831278,1.784608041
80.625,7.559422078,1.404117894,-32.19275782,3.675082624,-0.005544604943,,76.12618099,-0.002665799404,0.1254981088,1.700995948
80.7,7.413749272,1.197916818,-31.48702297,3.672332873,0.001664885093,,76.26478122,0.0184645136,-0.1023861609,1.618347153
80.8083,7.46007298,1.264991003,-31.70885329,3.677529597,-0.01101615078,,76.43589042,0.05426848854,-0.1137187185,1.53761844
80.9167,7.461773705,1.262135265,-31.68825717,3.713468354,-0.02220902783,,76.60090317,0.4415313564,-0.08746418289,1.501797024
81.0167,7.496137957,1.255249245,-31.68397619,3.754829462,-0.0300443822,,76.74934052,0.3627043112,-0.06839325178,1.464158463
81.1,7.544839665,1.255020613,-31.72880583,3.765577879,-0.03508599137,,76.86954541,-0.138062014,-0.05890987628,1.414715996
81.2083,7.453362265,1.236190554,-31.70380462,3.744297005,-0.04076195531,,77.02070407,-0.2118763207,-0.04501858038,1.376123735
81.3167,7.430200706,1.219238955,-31.70555164,3.723224746,-0.04507513748,,77.16849877,-0.1723922811,-0.03423868417,1.351875234
81.4167,7.415790958,1.204984134,-31.70607266,3.707630517,-0.04815092357,,77.30299174,-0.1385074661,-0.02703071578,1.337626162
81.525,7.402723107,1.1929212,-31.70605128,3.695011772,-0.05060579469,,77.43637657,-0.1135069203,-0.0219379462,1.33015803
81.6,7.392467662,1.185455397,-31.70765292,3.686166292,-0.0523216893,,77.5471535,-0.09827324456,-0.01912180202,1.328662019
81.7083,7.094004202,1.178517583,-31.72563671,3.676773128,-0.05412175853,,77.68001895,-0.1353444905,-0.01527221826,1.30106446
81.8167,5.717685886,1.086964834,-31.77883904,3.62217741,-0.09426238183,,77.7943831,-0.8927306572,-0.48988853,0.6523147319
81.925,5.349837755,0.9766097074,-31.8509306,3.532023701,-0.1003543835,,77.81454144,-0.614615266,0.1438131404,-0.3260227062
82,5.641013211,0.7041097565,-32.03511522,3.493523808,-0.08786466277,,77.76502961,-0.2237428395,0.1583736706,-0.8873371733
82.1,6.111263311,0.2713684035,-31.83432369,3.485329904,-0.0819039449,,77.65338521,0.0586187385,0.04934468396,-1.342093833
82.2,5.911080685,-0.1070552672,-31.82874018,3.494797447,-0.0690687203,,77.50559057,0.01193283566,0.219491179,-1.677081581
82.3,5.015812439,-0.5178276883,-31.89488665,3.480238685,-0.04584831569,,77.30763704,-0.3284752766,0.2447819495,-2.418901985
82.4,4.803930195,-1.016989338,-31.91614951,3.43819538,-0.02011410366,,77.01809127,-0.4127108661,0.2728811047,-3.448658272
82.5,5.328460261,-1.629671708,-31.84929302,3.430151871,0.008955489915,,76.63677229,0.245383212,0.3177370173,-4.180230948
82.6167,5.995410575,-2.369313182,-31.82176366,3.47171339,0.04890519296,,76.1208556,0.4407219334,0.3661123928,-4.623946351
82.7,6.404779507,-2.819976291,-31.92771342,3.504640756,0.07690343671,,75.76975303,0.3279165928,0.3823649518,-4.720845422
82.8,6.807580732,-3.301557627,-31.79093624,3.530060371,0.1185309648,,75.26305148,0.2351725712,0.3797859432,-4.57298062
82.9,7.182987804,-3.615513672,-31.75824901,3.558382663,0.1553531517,,74.82248512,0.325587222,0.3508218451,-4.167615011
83,7.204372379,-3.775084431,-31.74735185,3.588409142,0.1883065567,,74.42716295,0.2560014036,0.3012968756,-3.705444683
83.1,7.199711465,-3.818085872,-31.73897274,3.609984515,0.2156948587,,74.07658119,0.1708150643,0.2406914096,-3.276712211
83.2,7.191565604,-3.777892035,-31.73593666,3.623963856,0.2369103314,,73.76728757,0.1063929393,0.1787119464,-2.882029956
83.3,7.182508166,-3.676110543,-31.73300818,3.632376537,0.2520473008,,73.49603303,0.0601964384,0.1200489426,-2.5178547
83.4,7.173212222,-3.529924009,-31.73202756,3.636818063,0.2615664864,,73.25993323,0.0273279426,0.06706923144,-2.180620576
83.5,7.254524516,-3.310999162,-31.40682365,3.636897312,0.2659706752,,73.05660153,-0.1601170035,0.0145299874,-1.85002564
83.6083,7.113203111,-3.152750747,-31.83910584,3.613980629,0.2655059211,,72.88571867,-0.1261159347,-0.01864951919,-1.566304368
83.7083,7.138660087,-2.918205583,-31.7353808,3.60691553,0.2620931075,,72.7302941,-0.03439857957,-0.04883234117,-1.280972611
83.8083,7.133875645,-2.692158599,-31.73549555,3.603676457,0.25593412,,72.61403161,-0.03352000561,-0.07563523671,-1.02564197
83.9083,7.124977248,-2.461102135,-31.73627483,3.600094382,0.2473568749,,72.5226736,-0.0390118505,-0.09682318263,-0.7840347937
84.0083,7.115780928,-2.228397263,-31.73790572,3.59598104,0.2368894628,,72.45487653,-0.04380501914,-0.1131119363,-0.5552731999
84.1083,7.10663376,-1.996611165,-31.73917756,3.591442701,0.2249897019,,72.40941922,-0.0474605418,-0.1252740434,-0.3379706554
84.2,7.09975939,-1.824250897,-31.74011299,3.587822344,0.2153570728,,72.38932933,-0.04960291723,-0.132047988,-0.1817188785
84.3,7.08931101,-1.56031901,-31.74165493,3.581906627,0.1995187156,,72.38088219,-0.05227569936,-0.1393131391,0.05118652603
84.4083,7.07997255,-1.338819353,-31.7426118,3.57661507,0.1854039573,,72.39483522,-0.05404289747,-0.142841063,0.2421256299
84.5083,7.069229391,-1.1049775,-31.74261317,3.570699745,0.1698482114,,72.43110863,-0.05564808102,-0.1441312624,0.4411556179
84.625,7.059856802,-0.8774377232,-31.7439559,3.564626676,0.1542391823,,72.4885797,-0.05695385302,-0.1436614728,0.633087037
84.7,7.053487278,-0.7072444668,-31.74531936,3.55986736,0.1423013547,,72.54675651,-0.05775845066,-0.1425409774,0.7764973897
84.8,7.046633819,-0.5037241557,-31.74635377,3.55407324,0.1281224108,,72.63214353,-0.05860183648,-0.1409404328,0.9444549151
84.9,7.015012249,-0.3373725879,-31.69290507,3.550284966,0.1095174166,,72.73401777,0.02106908259,-0.2818408696,1.104068872
85,7.05405371,-0.03592563223,-31.64843137,3.553879473,0.08136334133,,72.85180734,0.01637707801,-0.1903946845,1.266087334
85.1,6.862109406,0.05802334554,-31.75507241,3.551134577,0.06682051273,,72.9856601,-0.08290285497,-0.1303632352,1.405379986
85.2,6.087890036,0.2164569425,-31.80248876,3.5312295,0.05419202149,,73.12147036,-0.3459238745,-0.1220538444,1.229947798
85.325,6.019911712,0.3448425488,-31.81637225,3.485293799,0.04025142032,,73.24109986,-0.3429034937,-0.1155887844,0.8223660961
85.4,6.195801496,0.3881864751,-31.81114821,3.462347339,0.03104596319,,73.3027714,-0.1964335732,-0.1031374636,0.6559291513
85.5083,6.446663153,0.4059934346,-31.79998644,3.449164629,0.02091528824,,73.36850322,-0.04343479628,-0.08187350318,0.5769224318
85.6083,6.684764036,0.4086083349,-31.78598261,3.449517714,0.01362731315,,73.42771841,0.05367334997,-0.06270831131,0.6320310023
85.7083,6.923989484,0.4175814831,-31.76885503,3.458115787,0.008113214211,,73.49783303,0.1198207241,-0.04705658052,0.803086397
85.8083,6.984458946,0.4455809414,-31.76063269,3.470642147,0.003968851405,,73.58881018,0.112063795,-0.03569529615,1.034247301
85.9083,6.985455015,0.4964631812,-31.75696352,3.479650609,0.0007023781452,,73.70247399,0.06413221194,-0.03000700484,1.255539385
86,6.983397289,0.5601332308,-31.7553203,3.483978069,-0.001962467214,,73.8257975,0.02829276169,-0.02835017547,1.45154199
86.1,6.842819897,0.6323881067,-31.80445689,3.485274804,-0.004969532331,,73.98046998,-0.03152274964,-0.0452545869,1.642494695
86.2,6.291435534,0.2371760633,-30.574417,3.45458181,-0.01223537812,,74.14256763,-0.6053354896,-0.2492183404,1.542483756
86.3,5.657960516,0.7321342437,-32.04355795,3.385458867,-0.06561446092,,74.28348471,-0.8633590715,-0.8031004018,1.189494972
86.4,5.801455453,0.8122205189,-31.95600195,3.290846004,-0.1661018437,,74.3830799,-0.991323135,-1.207223034,0.7957938131
86.5,5.978186804,0.8691570712,-31.8586452,3.192602754,-0.2970236685,,74.45007172,-0.9529705956,-1.392625861,0.5461363464
86.6,6.187641626,0.898975794,-31.79286544,3.102163035,-0.4380420684,,74.49843541,-0.8351881173,-1.405687038,0.4349639335
86.7167,6.476717823,0.9164685134,-31.74509898,3.015047919,-0.5964196846,,74.55011524,-0.6388252005,-1.280589163,0.4870696959
86.8167,6.679568558,0.9269859215,-31.73856456,2.95741265,-0.7175807162,,74.60492608,-0.4936993181,-1.129850111,0.6428773955
86.9167,6.714031126,0.9437890196,-31.7656081,2.912802488,-0.8236573764,,74.67928478,-0.4149259804,-0.9901028128,0.8590812396
87.025,6.707033976,0.9753934147,-31.8034244,2.871544649,-0.9193001465,,74.77441111,-0.4192122936,-0.9314749727,1.056038641
87.1,6.696616907,1.018887743,-31.82397226,2.835563527,-0.9968372409,,74.86811372,-0.4512701325,-0.9364157841,1.20476929
87.2083,6.678088447,1.097743747,-31.83924327,2.783756107,-1.100575818,,75.00745833,-0.5131156596,-0.9893608247,1.376163823
87.3083,6.656377267,1.190248659,-31.84544514,2.729536497,-1.202793281,,75.15149183,-0.577630955,-1.063556313,1.511497607
87.4083,6.610426539,1.289848923,-31.89240854,2.673942909,-1.315218959,,75.30856661,-0.4888724442,-1.219283399,1.641499262
87.5167,6.631375269,1.44856196,-31.86939379,2.617469515,-1.449281096,,75.49183674,-0.6229497763,-1.198838343,1.736836561
87.6167,5.999133907,1.537889776,-31.94007204,2.542669695,-1.573646109,,75.66325208,-0.9246442407,-1.339181894,1.630032735
87.7167,5.356578037,1.666185469,-32.01058733,2.433959921,-1.721121505,,75.81083205,-1.28478386,-1.655390371,1.244380011
87.8167,4.679161227,1.796198713,-32.04591645,2.289340608,-1.904071045,,75.90833616,-1.637223216,-2.040200295,0.6107881178
87.9,4.131091495,1.87535071,-32.06188265,2.158285072,-2.066917741,,75.93401129,-1.886324047,-2.333672628,-0.02089739927
88.0083,3.51198064,1.9307778,-32.04456391,1.918962969,-2.362878693,,75.8671223,-2.170995023,-2.753732188,-1.23345207
88.1167,3.585294798,1.866719919,-31.91298265,1.688048848,-2.669404919,,75.67986296,-2.009184627,-2.841674901,-2.263454495
88.2,3.788112274,1.728254576,-31.79794709,1.53391227,-2.898998143,,75.4673043,-1.595524539,-2.593594323,-2.87407638
88.3083,3.962228753,1.435666308,-31.68941655,1.401996493,-3.145002708,,75.12408502,-0.7277917144,-1.819305835,-3.490539959
88.4083,4.597770795,1.15165321,-31.48774366,1.388312233,-3.274336614,,74.75525709,0.5815306765,-0.5115485226,-3.871587314
88.5167,5.536063804,0.572392479,-31.12517268,1.483545437,-3.234949354,,74.36280002,1.55136313,1.272691876,-3.89774675
88.6167,5.954352114,0.104672055,-31.65626545,1.707559843,-3.022230675,,73.95429597,2.593248986,2.678404283,-3.585258504
88.7167,6.236139671,-0.3875229645,-31.90713268,1.986651472,-2.716270653,,73.61310778,2.889983055,3.377443712,-3.198157427
88.8167,6.287862898,-0.7331727741,-32.00494756,2.271077403,-2.372884171,,73.31260924,2.857419908,3.424001491,-2.780792823
88.9167,6.507755597,-0.9927551988,-32.16118172,2.556230753,-2.037244225,,73.0539975,2.794499209,3.178140022,-2.355738624
89.0167,6.598864883,-1.083195556,-32.27020802,2.815939313,-1.735302668,,72.83778471,2.382233094,2.828708931,-1.960568836
89.1167,6.643416761,-1.140434162,-32.14713662,3.042516073,-1.466404442,,72.65142637,2.151619697,2.486776914,-1.784431637
89.2167,6.709042177,-1.241122215,-32.3558693,3.2495899,-1.250411431,,72.4780876,1.979240545,1.707551791,-1.680966808
89.3167,6.75862171,-1.284772782,-32.4897149,3.440895275,-1.126909613,,72.31335067,1.840708467,0.6359298771,-1.613991701
89.4167,6.806717331,-1.271661527,-32.54011905,3.623350955,-1.1352554,,72.15366806,1.784511631,-0.8610641565,-1.574696416
89.5083,6.751133172,-1.196664958,-32.94889125,3.799827843,-1.261962555,,72.0107215,2.176501168,-1.943446582,-1.539831401
89.6167,6.81905191,-1.118240958,-33.81823225,4.065429438,-1.515200586,,71.84703068,2.852522051,-2.711114805,-1.472629802
89.7,6.977744316,-1.085504844,-34.52284342,4.292868787,-1.729674592,,71.73874797,3.213949213,-3.018532603,-1.403014242
89.8,7.110374967,-1.050863245,-35.45481722,4.672332586,-2.070638954,,71.59237228,3.784359759,-3.262531619,-1.283480705
89.9,7.399051693,-1.023567332,-36.35742593,5.060704535,-2.401771343,,71.47010026,3.875950584,-3.348334703,-1.143132466
90,7.472645752,-0.90278002,-36.86807361,5.428560586,-2.735594828,,71.36291348,3.445707858,-3.225472723,-0.9993412449
90.1,7.48140549,-0.7563755901,-37.10194806,5.754810059,-3.021497455,,71.26478786,3.060841888,-2.273187182,-0.9895612338
90.2167,7.471163437,-0.8369601642,-37.11920859,6.090308786,-3.230140086,,71.14596238,2.627417399,-1.327938993,-1.055149225
90.3,7.576455193,-0.7617424307,-37.06176548,6.294086867,-3.319789165,,71.05524672,2.093177246,-0.7356183093,-1.134457546
90.4,7.496866445,-0.5724309333,-36.572363,6.448659983,-3.329185682,,70.93184113,0.915639665,0.7869168624,-1.396931689
90.5,7.23344566,-0.7583892088,-35.75846324,6.491156145,-3.184605324,,70.77372519,-0.1275540596,2.074326459,-1.813161363
90.6,6.829341143,-0.8886697454,-34.67919056,6.441219103,-2.943809971,,70.57031977,-0.8172445565,2.713025388,-2.312179783
90.7,6.492576255,-0.9982890234,-33.67701942,6.350148537,-2.658744578,,70.31358899,-0.9416766155,2.956769934,-2.875445256
90.8,6.201251769,-1.104347568,-32.96727538,6.27717049,-2.361947826,,69.99928586,-0.4311737584,2.94211588,-3.453429374
90.9,6.088365261,-1.215228389,-32.71249223,6.260564364,-2.075536707,,69.62973104,0.1390772583,2.744114276,-3.966467115
91,6.016492694,-1.332024305,-32.67620263,6.298326336,-1.815236405,,69.21355529,0.6389080216,2.417462371,-4.370667359
91.1,5.968357226,-1.454386078,-32.78387548,6.380913338,-1.591918068,,68.76253693,1.021497442,2.003188433,-4.655161332
91.2,5.94934622,-1.577370384,-32.99122182,6.495711268,-1.41279146,,68.28862886,1.271881204,1.534845755,-4.815888717
91.3,5.92829106,-1.659257197,-33.20780655,6.629841691,-1.280226918,,67.80421209,1.402232025,1.133182089,-4.865827699
91.4,5.898936897,-1.728712351,-33.39402508,6.772543072,-1.173877591,,67.31751615,1.441784878,1.052635908,-4.865439426
91.5,5.997348114,-1.890140658,-33.61636341,6.909155863,-1.074836973,,66.83431958,1.138258511,0.8846266735,-4.772699073
91.6,5.858737307,-1.971447026,-33.46553163,6.993567485,-0.9989188688,,66.36468297,0.5060322261,0.636788956,-4.601635695
91.7,5.723495216,-1.990205306,-33.18192142,7.028843992,-0.930464077,,65.9111154,0.2075305958,0.8689263979,-4.477412894
91.8,5.617277774,-2.161199739,-32.92732941,7.042937941,-0.833700563,,65.46877696,0.08792615846,1.025987942,-4.351721495
91.9,5.527195821,-2.291126449,-32.69258818,7.051048126,-0.7332782569,,65.04114861,0.08812546508,0.9506321426,-4.179328797
92,5.454576626,-2.39486193,-32.5114046,7.062552785,-0.6459678562,,64.63297523,0.1529830345,0.7706814519,-3.955821551
92.1,5.396971658,-2.479422822,-32.39057731,7.081812637,-0.578533982,,64.25007952,0.2390762078,0.5594364081,-3.669273106
92.2083,5.348574414,-2.552824187,-32.3171194,7.112122615,-0.5290646128,,63.87045449,0.3224438178,0.3419954122,-3.303883687
92.3167,5.320344699,-2.607717558,-32.32481119,7.150092207,-0.5013765123,,63.53242591,0.3760968971,0.1635951582,-2.9019336
92.4,5.303895008,-2.544617987,-32.33588357,7.182299583,-0.4846067073,,63.30149288,0.3958441871,0.2439929113,-2.611275026
92.5,5.282498384,-2.370349899,-32.32347196,7.22245921,-0.438586682,,63.05355766,0.406854785,0.9511778072,-2.365619046
92.6,5.246399884,-2.44039911,-32.27386356,7.264258564,-0.2639942005,,62.81815975,0.437709033,2.5585879,-2.346350436
92.7083,5.198957671,-2.618876857,-32.18510494,7.315330735,0.06339042374,,62.56598354,0.5158963189,3.438517779,-2.299260829
92.8083,5.231382337,-2.723624515,-32.15928598,7.36890728,0.4261554757,,62.33954031,0.4741964514,3.79648037,-2.218325679
92.9083,5.241955331,-2.794653496,-32.01959924,7.39483304,0.8132525391,,62.12244497,-0.01206990211,3.932186416,-2.111194757
93.0083,5.138065649,-2.843991198,-31.6891154,7.37799854,1.208532603,,61.91752703,-0.3117847462,3.965625741,-1.968585145
93.1167,5.044368254,-2.963793509,-31.34854673,7.337552251,1.62437196,,61.71610499,-0.4152871696,3.585422943,-1.703163517
93.2,4.995820167,-3.089341304,-31.17235436,7.306415296,1.875596945,,61.59713802,-0.4092891194,2.963902986,-1.418724079
