Time,Acceleration_X,Acceleration_Y,Acceleration_Z,Pitch_degree,Roll_degree,Yaw_degree,Heading_degree,Pitch_rate,Roll_rate,Yaw_rate
1,2.695351816,-0.02746167578,-32.11049621,4.95048186,0.1046535411,,180.0133117,0,0,0
1,2.695351816,-0.02746167578,-32.11049621,4.95048186,0.1046535411,,180.0133117,0,0,0
1,2.695351816,-0.02746167578,-32.11049621,4.95048186,0.1046535411,,180.0133117,0,0,0
1,2.695351816,-0.02746167578,-32.11049621,4.95048186,0.1046535411,,180.0133117,0,0,0
1,2.695351816,-0.02746167578,-32.11049621,4.95048186,0.1046535411,,180.0133117,0,0,0
1,2.695351816,-0.02746167578,-32.11049621,4.95048186,0.1046535411,,180.0133117,0,0,0
1,2.695351816,-0.02746167578,-32.11049621,4.95048186,0.1046535411,,180.0133117,0,0,0
1,2.695351816,-0.02746167578,-32.11049621,4.95048186,0.1046535411,,180.0133117,0,0,0
1,2.695351816,-0.02746167578,-32.11049621,4.95048186,0.1046535411,,180.0133117,0,0,0
1,2.695351816,-0.02746167578,-32.11049621,4.95048186,0.1046535411,,180.0133117,0,0,0
2,2.714076612,-0.05136106597,-32.11005691,4.980492835,0.0926731406,,180.0123854,0.006989299629,-0.001833829734,-0.0001400070906
2,2.714076612,-0.05136106597,-32.11005691,4.980492835,0.0926731406,,180.0123854,0.006989299629,-0.001833829734,-0.0001400070906
2,2.714076612,-0.05136106597,-32.11005691,4.980492835,0.0926731406,,180.0123854,0.006989299629,-0.001833829734,-0.0001400070906
2,2.714076612,-0.05136106597,-32.11005691,4.980492835,0.0926731406,,180.0123854,0.006989299629,-0.001833829734,-0.0001400070906
2,2.714076612,-0.05136106597,-32.11005691,4.980492835,0.0926731406,,180.0123854,0.006989299629,-0.001833829734,-0.0001400070906
2,2.714076612,-0.05136106597,-32.11005691,4.980492835,0.0926731406,,180.0123854,0.006989299629,-0.001833829734,-0.0001400070906
2,2.714076612,-0.05136106597,-32.11005691,4.980492835,0.0926731406,,180.0123854,0.006989299629,-0.001833829734,-0.0001400070906
2,2.714076612,-0.05136106597,-32.11005691,4.980492835,0.0926731406,,180.0123854,0.006989299629,-0.001833829734,-0.0001400070906
2,2.714076612,-0.05136106597,-32.11005691,4.980492835,0.0926731406,,180.0123854,0.006989299629,-0.001833829734,-0.0001400070906
2,2.714076612,-0.05136106597,-32.11005691,4.980492835,0.0926731406,,180.0123854,0.006989299629,-0.001833829734,-0.0001400070906
3,2.694477945,-0.05347265946,-32.11152095,4.951519032,0.09522590662,,180.0125611,-0.004038031891,0.0003991410859,2.783629359e-05
3,2.694477945,-0.05347265946,-32.11152095,4.951519032,0.09522590662,,180.0125611,-0.004038031891,0.0003991410859,2.783629359e-05
3,2.694477945,-0.05347265946,-32.11152095,4.951519032,0.09522590662,,180.0125611,-0.004038031891,0.0003991410859,2.783629359e-05
3,2.694477945,-0.05347265946,-32.11152095,4.951519032,0.09522590662,,180.0125611,-0.004038031891,0.0003991410859,2.783629359e-05
3,2.694477945,-0.05347265946,-32.11152095,4.951519032,0.09522590662,,180.0125611,-0.004038031891,0.0003991410859,2.783629359e-05
3,2.694477945,-0.05347265946,-32.11152095,4.951519032,0.09522590662,,180.0125611,-0.004038031891,0.0003991410859,2.783629359e-05
3,2.694477945,-0.05347265946,-32.11152095,4.951519032,0.09522590662,,180.0125611,-0.004038031891,0.0003991410859,2.783629359e-05
3,2.694477945,-0.05347265946,-32.11152095,4.951519032,0.09522590662,,180.0125611,-0.004038031891,0.0003991410859,2.783629359e-05
3,2.694477945,-0.05347265946,-32.11152095,4.951519032,0.09522590662,,180.0125611,-0.004038031891,0.0003991410859,2.783629359e-05
3,2.694477945,-0.05347265946,-32.11152095,4.951519032,0.09522590662,,180.0125611,-0.004038031891,0.0003991410859,2.783629359e-05
3.15,2.695927082,-0.05503332077,-32.11146009,4.951332446,0.09800151807,,180.0127816,4.719148103e-05,0.0004186228159,3.334030301e-05
3.21667,2.69586679,-0.05487278039,-32.11149051,4.951379418,0.09820361789,,180.0127978,0.0003360715811,0.001126303349,8.989793388e-05
3.31667,2.69585838,-0.0548540354,-32.11152427,4.951417564,0.09832734447,,180.0128076,0.0004453563724,0.001407801214,0.0001123910447
3.40833,2.695876458,-0.05492471212,-32.11140559,4.951462567,0.09846488299,,180.0128186,0.0005465655811,0.001619236613,0.0001293053301
3.525,2.695922417,-0.05505322356,-32.11134089,4.951526802,0.09864976217,,180.0128334,0.0006416117719,0.001793603946,0.0001432722449
3.61667,2.696022374,-0.05531851597,-32.11154,4.95159404,0.09883469515,,180.0128482,0.0007056575418,0.001915791306,0.0001530492235
3.71667,2.696045712,-0.05535817926,-32.11136315,4.951660165,0.09901168579,,180.0128623,0.0007386095257,0.00195347476,0.0001560858626
3.81667,2.696113822,-0.05552718365,-32.11140885,4.951735169,0.09920889647,,180.0128781,0.0007604067297,0.001985232052,0.0001586303
3.91667,2.696168279,-0.05565891567,-32.11140755,4.951811627,0.09940772785,,180.012894,0.0007676138228,0.001987935121,0.000158855006
4.01667,2.696220832,-0.05579783844,-32.11139526,4.951894775,0.09962277935,,180.0129111,0.0007653333071,0.001973699765,0.0001577245456
4.11667,2.69628928,-0.05596983322,-32.11150946,4.95197079,0.09981862775,,180.0129268,0.0007557192149,0.001954365757,0.0001561789764
4.21667,2.696303984,-0.05599247214,-32.11136415,4.952039376,0.09999548818,,180.0129409,0.0007401444978,0.001907992943,0.0001524825204
4.30833,2.696347758,-0.05610633957,-32.11136249,4.952112693,0.1001849501,,180.0129561,0.000723118165,0.001868739497,0.0001493464788
4.41667,2.696412346,-0.05629733348,-32.11139648,4.952190703,0.1003880832,,180.0129723,0.0007086588517,0.001834408017,0.0001465999377
4.51667,2.696435235,-0.05632347394,-32.11136357,4.952254508,0.100553323,,180.0129855,0.0006825752665,0.001772118561,0.0001416257442
4.61667,2.696471198,-0.05642129706,-32.11136271,4.952321727,0.1007287419,,180.0129995,0.0006590708463,0.001725046458,0.0001378610137
4.70833,2.696508234,-0.05651947488,-32.11136337,4.95238664,0.1008994422,,180.0130132,0.0006363072733,0.001677636674,0.0001340695945
4.8,2.696541093,-0.05660385317,-32.11136447,4.952444063,0.1010514064,,180.0130253,0.0006149905142,0.001633254658,0.0001305196811
4.90833,2.696572593,-0.05668913236,-32.11135062,4.952509446,0.10122582,,180.0130392,0.0005896377175,0.001579052769,0.000126185103
5.00833,2.69660511,-0.05677559969,-32.11135595,4.952562661,0.1013690052,,180.0130507,0.0005689345817,0.001536444736,0.0001227766792
5.1,2.696643835,-0.05689118679,-32.11138295,4.952614077,0.1015087384,,180.0130618,0.0005500656174,0.001499893975,0.0001198480559
5.20833,2.696676579,-0.05697991449,-32.11138002,4.952672429,0.1016686977,,180.0130746,0.0005251180838,0.001446797898,0.000115602117
5.3,2.696717229,-0.05709353918,-32.11142896,4.952723817,0.1018109685,,180.013086,0.0005019625858,0.001404239818,0.000112195565
5.40833,2.696731357,-0.0571210203,-32.11136727,4.952776816,0.1019597281,,180.0130979,0.000475699284,0.00134501075,0.0001074635669
5.5,2.69676014,-0.05720528114,-32.11138176,4.952819533,0.1020812887,,180.0131076,0.0004553746446,0.001306882392,0.0001044080565
5.60833,2.696782821,-0.05726802346,-32.11137008,4.95286762,0.1022202862,,180.0131187,0.0004311456082,0.001257407964,0.0001004533193
5.7,2.696815013,-0.05737785069,-32.11140091,4.952906271,0.1023337808,,180.0131278,0.0004120835319,0.001226562918,9.797793941e-05
5.80833,2.696823922,-0.05738659421,-32.11136988,4.952946391,0.1024536889,,180.0131373,0.0003892140482,0.001174539232,9.38211576e-05
5.9,2.696856706,-0.05750895064,-32.11138705,4.952984397,0.1025695733,,180.0131466,0.0003697349393,0.001144454997,9.140646006e-05
6.00833,2.696877642,-0.05757443745,-32.11137992,4.953023216,0.1026905419,,180.0131563,0.0003471269918,0.00110087462,8.791820291e-05
6.11667,2.696888182,-0.05758250672,-32.11137802,4.953056901,0.1027981071,,180.0131649,0.0003254599483,0.001053026568,8.409424599e-05
6.20833,2.696905634,-0.05763887703,-32.11138078,4.953086004,0.1028934281,,180.0131725,0.0003073197032,0.001019531219,8.141224636e-05
6.3,2.696926532,-0.05774132362,-32.11136032,4.953115865,0.1029939303,,180.0131805,0.0002887742166,0.0009917886885,7.918481329e-05
6.40833,2.696942171,-0.05779730013,-32.11135383,4.953146017,0.1030987238,,180.0131889,0.0002677924193,0.000953263861,7.609793211e-05
6.5,2.696950803,-0.0577903612,-32.11139,4.953163462,0.1031612279,,180.0131938,0.000254351239,0.0009229329806,7.367692102e-05
6.60833,2.696970225,-0.05788082991,-32.11137399,4.95319601,0.103282596,,180.0132035,0.0002305202304,0.0008818090716,7.037961924e-05
6.70833,2.696983177,-0.05790501757,-32.11139924,4.953218168,0.1033689772,,180.0132104,0.0002114459109,0.0008458399634,6.750272406e-05
6.80833,2.696994926,-0.05795110057,-32.11140375,4.953238494,0.1034522027,,180.0132171,0.0001937273127,0.0008165266024,6.515364226e-05
6.90833,2.697006044,-0.05799641838,-32.11140808,4.95325708,0.1035325691,,180.0132235,0.0001766553679,0.0007886128917,6.291650881e-05
7,2.697014155,-0.05804137105,-32.11140436,4.953272654,0.1036039782,,180.0132292,0.0001615340853,0.0007646936168,6.099882766e-05
7.1,2.697025014,-0.05807970714,-32.11141533,4.953288052,0.1036791681,,180.0132352,0.0001451177011,0.0007374948254,5.881932209e-05
7.20833,2.697030457,-0.05813108919,-32.11140177,4.953302915,0.1037578265,,180.0132414,0.0001279270618,0.0007120199884,5.677553967e-05
7.3,2.697033176,-0.05817445121,-32.11137389,4.95331405,0.1038221587,,180.0132466,0.0001136986444,0.0006912902952,5.511246516e-05
7.40833,2.697047346,-0.05820393124,-32.11142511,4.95332554,0.1038957013,,180.0132524,9.705277741e-05,0.0006638477847,5.291368233e-05
7.50833,2.697036786,-0.05826656246,-32.1112911,4.953334567,0.1039612046,,180.0132577,8.24985093e-05,0.0006477207357,5.161283875e-05
7.61667,2.69705908,-0.05827415417,-32.11143692,4.953342116,0.1040245462,,180.0132627,6.754775895e-05,0.0006210101417,4.947707477e-05
7.70833,2.697041301,-0.05833336982,-32.11127751,4.953348221,0.1040859011,,180.0132676,5.357202226e-05,0.0006070811802,4.835164011e-05
7.8,2.697060314,-0.05834466631,-32.11142016,4.95335258,0.1041405601,,180.0132719,4.043075139e-05,0.0005859900876,4.666433764e-05
7.90833,2.697061851,-0.05837851,-32.11142199,4.953356236,0.1042030792,,180.0132769,2.566205074e-05,0.0005670595846,4.514393586e-05
8,2.697055557,-0.0584119496,-32.11137653,4.953358094,0.1042544291,,180.013281,1.343745192e-05,0.0005533058083,4.403909054e-05
8.1,2.697044325,-0.05845462494,-32.11126095,4.953358853,0.1043090277,,180.0132854,6.869200307e-07,0.0005410822464,4.304968693e-05
8.20833,2.697040027,-0.05848372671,-32.11124814,4.953358223,0.1043664315,,180.0132899,-1.313509486e-05,0.0005251282254,4.176695615e-05
8.3,2.697071773,-0.05848886202,-32.11146859,4.953356733,0.1044094876,,180.0132933,-2.355077585e-05,0.0005096394976,4.052818416e-05
8.40833,2.697052471,-0.05852949006,-32.11138183,4.953353207,0.1044683414,,180.013298,-3.814823789e-05,0.0004975158594,3.954866686e-05
8.5,2.697065189,-0.05854850433,-32.11146653,4.953349272,0.1045134754,,180.0133016,-4.893216143e-05,0.0004856522998,3.859508298e-05
8.61667,2.697004251,-0.05845218682,-32.11148634,4.953344867,0.1045692042,,180.013306,-1.947522472e-05,0.0005662671387,4.503387922e-05
8.70833,2.6970034,-0.05849527451,-32.11149113,4.953345126,0.1046252291,,180.0133105,2.871188623e-05,0.0006577870477,5.23621059e-05
8.8,2.697019431,-0.05854915533,-32.11149324,4.953349561,0.1046889143,,180.0133156,6.881794268e-05,0.0007311297059,5.823638284e-05
8.90833,2.697009542,-0.05865826622,-32.11121218,4.95335946,0.1047784358,,180.0133227,9.9344066e-05,0.0008098771083,6.453199336e-05
9,2.697056623,-0.05867728566,-32.11145949,4.953368915,0.1048539803,,180.0133287,0.000105717347,0.0008437986892,6.723617291e-05
9.10833,2.697080627,-0.0587316643,-32.11149177,4.953380238,0.1049473845,,180.0133362,0.0001002769968,0.0008803500854,7.013966596e-05
9.2,2.697093198,-0.05878193448,-32.11149357,4.953388951,0.1050293355,,180.0133427,8.703226248e-05,0.0009061568695,7.218025641e-05
9.31667,2.697108466,-0.05883866459,-32.11151142,4.953397326,0.1051289549,,180.0133506,6.443106202e-05,0.0009309793017,7.413359572e-05
9.40833,2.697093204,-0.05891342195,-32.11138773,4.95340264,0.1052233423,,180.0133581,3.864386539e-05,0.000955450564,7.605619313e-05
9.5,2.697109387,-0.05895207286,-32.11147068,4.953405137,0.1053114909,,180.0133652,1.252097247e-05,0.0009693751533,7.713779442e-05
9.6,2.697111303,-0.05900210532,-32.11147319,4.953405175,0.1054010378,,180.0133723,-1.516685551e-05,0.0009847712513,7.833594179e-05
9.70833,2.697096172,-0.05907913619,-32.11138581,4.953401456,0.1055171506,,180.0133815,-5.22005932e-05,0.001006017646,7.999151583e-05
9.8,2.697092845,-0.0591300968,-32.11138533,4.953395484,0.1056097879,,180.0133889,-8.195360256e-05,0.001020287026,8.109791929e-05
9.90833,2.697052203,-0.05915846102,-32.11121989,4.953385245,0.1057216196,,180.0133978,-0.000102119884,0.001060632575,8.428794931e-05
10.0167,2.69703328,-0.05919478611,-32.11123435,4.953375366,0.1058294423,,180.0134063,-9.278910086e-05,0.001100696209,8.74844858e-05
10.1083,2.697040151,-0.05933969875,-32.1113149,4.95336665,0.1059414809,,180.0134152,-8.150280882e-05,0.001146196743,9.111548637e-05
10.2167,2.697039092,-0.05934454147,-32.11128108,4.953358842,0.1060561691,,180.0134244,-7.571864482e-05,0.00115499952,9.182127012e-05
10.3,2.697043263,-0.05941371986,-32.11129521,4.953351856,0.1061628868,,180.0134328,-7.760139415e-05,0.001168041337,9.285683694e-05
10.4167,2.697045774,-0.05949028672,-32.111309,4.953343035,0.1062901152,,180.013443,-8.679712012e-05,0.001176284889,9.350366603e-05
10.5,2.697045809,-0.05955464261,-32.11131728,4.953334577,0.1063983283,,180.0134516,-9.90553759e-05,0.001179336918,9.37344468e-05
10.6083,2.697043574,-0.05963265356,-32.11132686,4.953322953,0.1065263445,,180.0134617,-0.0001173093428,0.001180694072,9.382425896e-05
10.7,2.697039655,-0.05969525291,-32.11133281,4.953311465,0.1066346989,,180.0134703,-0.0001348871857,0.001179405243,9.370446862e-05
10.8083,2.697032719,-0.05977513351,-32.11134019,4.953295745,0.1067624307,,180.0134805,-0.0001573883349,0.001177816557,9.355526375e-05
10.9,2.697023975,-0.05985252998,-32.11134662,4.953280501,0.1068702473,,180.0134891,-0.0001775824446,0.001177213169,9.348849188e-05
11.0167,2.697016771,-0.05989813147,-32.11134822,4.953260069,0.1069973899,,180.0134992,-0.0002012900798,0.001168025018,9.273396841e-05
11.1083,2.697007271,-0.05995795118,-32.11135248,4.953240723,0.1071045148,,180.0135077,-0.0002220806188,0.001163875934,9.238333211e-05
11.2167,2.696994746,-0.06002695621,-32.11135692,4.95321539,0.1072305916,,180.0135177,-0.0002468654423,0.001158717005,9.194845375e-05
11.3,2.696874648,-0.060087118,-32.11136838,4.953193077,0.107336911,,180.0135261,-0.0002184139363,0.001155702472,9.173570559e-05
11.4083,2.696838631,-0.06018085832,-32.11136793,4.953174939,0.1074620997,,180.013536,-0.0001026826583,0.001158594883,9.207759296e-05
11.5083,2.696848561,-0.06021767236,-32.11137587,4.953169634,0.1075682082,,180.0135445,-7.359262112e-06,0.001154931949,9.187801027e-05
11.6167,2.696877808,-0.06027999811,-32.11137628,4.953173416,0.1076935364,,180.0135545,7.774186387e-05,0.001155010854,9.196707191e-05
11.7083,2.696909548,-0.06040655766,-32.11134875,4.953183755,0.1078094657,,180.0135637,0.0001295690604,0.001169578686,9.31765807e-05
11.8,2.696928831,-0.06045503295,-32.11134529,4.953194272,0.1078966644,,180.0135706,0.0001528583608,0.001172269514,9.341342644e-05
11.9167,2.696957608,-0.06048352492,-32.11137613,4.953214681,0.1080432907,,180.0135823,0.0001702040007,0.001166419657,9.296478944e-05
12.0083,2.69697464,-0.0606013384,-32.11133583,4.953231809,0.1081602975,,180.0135916,0.0001712137145,0.001181048684,9.413043441e-05
12.1083,2.696990796,-0.06061089454,-32.11137192,4.953247243,0.1082681595,,180.0136002,0.0001642589745,0.001177395574,9.383223371e-05
12.2083,2.697004723,-0.06067797414,-32.11137259,4.953263162,0.1083864965,,180.0136097,0.0001520525715,0.001184079381,9.435256146e-05
12.3,2.697016392,-0.06072522869,-32.11138158,4.953276517,0.108495359,,180.0136183,0.0001373565155,0.001187636618,9.46224676e-05
12.4083,2.697024242,-0.06082973955,-32.11135718,4.953291414,0.1086348032,,180.0136295,0.0001158851353,0.001201699245,9.572100114e-05
12.5083,2.697028019,-0.06093337779,-32.11131939,4.953302084,0.1087552434,,180.013639,9.573514257e-05,0.001217123322,9.692901587e-05
12.6,2.697037035,-0.0609590144,-32.11135747,4.953310036,0.1088663816,,180.0136479,7.592580542e-05,0.001217397726,9.693169714e-05
12.7,2.697046035,-0.06099678418,-32.11138466,4.953316162,0.1089781916,,180.0136568,5.572547483e-05,0.001221148212,9.721021257e-05
12.8083,2.697038258,-0.06113505602,-32.11130682,4.953321246,0.1091214462,,180.0136682,2.93407776e-05,0.001242989055,9.892298833e-05
12.9,2.69704608,-0.06116352395,-32.11135678,4.953323065,0.1092350446,,180.0136772,8.196172049e-06,0.001245304149,9.908667775e-05
13.0167,2.697053096,-0.06121369963,-32.11139094,4.95332271,0.1093702741,,180.013688,-1.683276353e-05,0.001251740665,9.957405743e-05
13.1167,2.697045522,-0.06130963252,-32.11135823,4.953319948,0.1094963049,,180.013698,-4.050495793e-05,0.001266957172,0.0001007622368
13.2083,2.697042678,-0.06138140109,-32.11135891,4.953314823,0.1096235038,,180.0137081,-6.415410261e-05,0.001277483198,0.0001015766925
13.3083,2.69703979,-0.06145319114,-32.11136196,4.953307333,0.1097517448,,180.0137183,-8.789254894e-05,0.001288755023,0.0001024504045
13.4083,2.697026576,-0.06156090272,-32.11130187,4.953297479,0.1098809429,,180.0137286,-0.000111870273,0.00130788456,0.0001039491802
13.5,2.697027069,-0.06158895371,-32.11135953,4.953286354,0.1100004445,,180.0137381,-0.0001334957508,0.001310191864,0.0001041112402
13.6,2.697026795,-0.06163751856,-32.11139244,4.953273231,0.1101208435,,180.0137477,-0.0001551880789,0.001318403668,0.0001047420082
13.7083,2.69700949,-0.06174168812,-32.11136158,4.953253606,0.1102757,,180.01376,-0.000183559979,0.001336514826,0.000106156292
13.8083,2.696987651,-0.06185607337,-32.11128695,4.953234167,0.1104098387,,180.0137706,-0.0002081929754,0.001357903621,0.0001078338613
13.9083,2.696995952,-0.06186776666,-32.11140009,4.953214211,0.1105340569,,180.0137805,-0.0002296957621,0.001358758922,0.000107879159
14.0083,2.696975231,-0.0619626955,-32.1113673,4.953190116,0.1106708376,,180.0137913,-0.0002543946713,0.001375816407,0.0001092130662
14.1,2.696945351,-0.06207810187,-32.11127818,4.953163585,0.11080893,,180.0138023,-0.0002792223516,0.001397387196,0.000110904643
14.2083,2.696956815,-0.06209474406,-32.11142465,4.953132099,0.1109601312,,180.0138143,-0.0003045074111,0.001400085239,0.0001110933439
14.3,2.696941461,-0.06216512592,-32.11142762,4.953103241,0.1110892423,,180.0138245,-0.0003269388777,0.001413809864,0.0001121628
14.4,2.696893998,-0.06231409947,-32.11127899,4.953069396,0.1112316022,,180.0138358,-0.0003532397,0.001443271733,0.0001144812103
14.5083,2.696851152,-0.0624338297,-32.1114401,4.953030628,0.1113859735,,180.0138481,-0.0003517816932,0.001387109221,0.0001100171263
14.6083,2.696794478,-0.06254986477,-32.11128122,4.952997054,0.1115211908,,180.0138588,-0.0003149843789,0.001319784883,0.0001046926066
14.7083,2.696803116,-0.06255347892,-32.11143001,4.952969723,0.1116392329,,180.0138682,-0.0002790757399,0.001258168152,9.982738512e-05
14.8,2.696774057,-0.06264992291,-32.11127342,4.952943338,0.1117632681,,180.013878,-0.0002479810678,0.001228949155,9.752957641e-05
14.9083,2.696782637,-0.06267823864,-32.11138386,4.952917757,0.1118942408,,180.0138884,-0.0002249773241,0.00119907332,9.517419807e-05
15.0083,2.696763888,-0.06276967912,-32.11127299,4.952895918,0.1120135306,,180.0138979,-0.0002124972402,0.001196143518,9.495303715e-05
15.1,2.696755046,-0.06282252821,-32.11126468,4.952876767,0.1121222073,,180.0139065,-0.0002063187788,0.001193206966,9.472492033e-05
15.2083,2.696772146,-0.06284322887,-32.11144011,4.95285461,0.1122508062,,180.0139167,-0.0002037712881,0.001187959437,9.431300678e-05
15.3083,2.696769101,-0.06289366747,-32.11146266,4.952835925,0.1123600563,,180.0139254,-0.0002044606552,0.001193668476,9.476589451e-05
15.4,2.69672811,-0.06301388423,-32.11126066,4.952815349,0.112480135,,180.0139349,-0.0002080184948,0.001215619387,9.650495447e-05
15.5167,2.696748401,-0.06303046852,-32.11146823,4.952792617,0.11261164,,180.0139454,-0.0002123721643,0.001217433709,9.664797101e-05
15.6083,2.696732941,-0.06310556383,-32.11145118,4.952771116,0.1127344419,,180.0139551,-0.0002180495543,0.001233048963,9.788367248e-05
15.7083,2.696726796,-0.06315814807,-32.11147444,4.952750921,0.1128480964,,180.0139641,-0.0002232600397,0.001244989078,9.882864887e-05
15.8,2.696699571,-0.06325166734,-32.11139642,4.952728283,0.1129737349,,180.0139741,-0.0002303620172,0.001266431129,0.0001005232215
15.9083,2.6966842,-0.06332507091,-32.11139467,4.95270302,0.1131115153,,180.013985,-0.0002377802385,0.001285050122,0.0001019965433
16,2.696683967,-0.06337492304,-32.1114586,4.952680981,0.1132298756,,180.0139944,-0.0002443007975,0.001299308844,0.0001031242267
16.1,2.696642009,-0.06350232508,-32.11125453,4.952656219,0.1133608,,180.0140048,-0.000252346464,0.001329539974,0.0001055211246
16.2083,2.696643444,-0.06354328717,-32.11139956,4.952628531,0.1135048014,,180.0140163,-0.0002605323279,0.0013421159,0.0001065123723
16.3083,2.696612118,-0.06374472651,-32.11130272,4.952602133,0.1136399685,,180.014027,-0.0002676351343,0.001351756737,0.0001072715747
16.4,2.696559965,-0.06402180201,-32.11131415,4.952578537,0.1137543012,,180.0140361,-0.0002378576502,0.001095170106,8.688894389e-05
16.5,2.696541954,-0.06402495603,-32.11133349,4.952557237,0.1138496953,,180.0140436,-0.0001826937446,0.0007988492535,6.33728086e-05
16.6083,2.696541965,-0.06399814645,-32.11134686,4.952540326,0.1139235042,,180.0140495,-0.0001271131445,0.0005589133659,4.434099509e-05
16.7,2.69654671,-0.06397885708,-32.1113547,4.952530282,0.1139682839,,180.014053,-9.032947156e-05,0.0004120732504,3.269515453e-05
16.8,2.696551834,-0.06396459403,-32.11136057,4.952523212,0.1140012847,,180.0140557,-6.288345893e-05,0.0003034945001,2.408354562e-05
16.9083,2.696557362,-0.0639514273,-32.11136719,4.952517281,0.1140310049,,180.014058,-3.882368843e-05,0.0002052724282,1.62947504e-05
17,2.696560476,-0.06394384289,-32.11136961,4.952514282,0.1140474212,,180.0140593,-2.620519489e-05,0.0001506885305,1.196466099e-05
17.1,2.696562876,-0.06393835275,-32.11137267,4.952512267,0.1140594608,,180.0140603,-1.750299146e-05,0.0001103622888,8.764438377e-06
17.2083,2.696565078,-0.0639332295,-32.11137563,4.952510653,0.114070224,,180.0140611,-1.023391571e-05,7.385350452e-05,5.867084862e-06
17.3167,2.696566334,-0.06393034133,-32.11137799,4.952509878,0.1140761065,,180.0140616,-6.569844788e-06,5.360354292e-05,4.259316008e-06
17.4083,2.696566979,-0.06392791882,-32.11137712,4.952509321,0.1140809962,,180.014062,-3.704965845e-06,3.636883333e-05,2.891113747e-06
17.5,2.696567529,-0.06392631962,-32.11137766,4.952509051,0.1140838701,,180.0140622,-2.134620894e-06,2.590557404e-05,2.061649862e-06
17.6083,2.696567759,-0.06392502805,-32.11137708,4.952508882,0.1140862029,,180.0140624,-9.599163988e-07,1.700339369e-05,1.353694417e-06
17.7,2.696568374,-0.06392400632,-32.11137979,4.952508822,0.1140875222,,180.0140625,-2.94194641e-07,1.156946261e-05,9.230321824e-07
17.8,2.696568403,-0.06392338437,-32.11137947,4.952508815,0.1140884078,,180.0140626,1.581552346e-07,7.576078338e-06,6.047014221e-07
17.9083,2.69656865,-0.06392251927,-32.1113798,4.952508856,0.1140890831,,180.0140626,5.340387646e-07,3.955002998e-06,3.179393846e-07
18,2.696568821,-0.06392224842,-32.11137974,4.952508911,0.1140893585,,180.0140626,6.571649927e-07,1.970514527e-06,1.584596138e-07
18.1083,2.696568795,-0.06392177433,-32.11137944,4.952508989,0.1140894816,,180.0140627,7.90797309e-07,2.732374346e-07,2.379126803e-08
18.2083,2.696568839,-0.06392148439,-32.1113793,4.952509063,0.11408946,,180.0140627,8.403389895e-07,-7.840615502e-07,-6.063443172e-08
18.3,2.696568941,-0.06392104023,-32.1113792,4.95250915,0.1140893403,,180.0140626,8.949724972e-07,-1.590486887e-06,-1.23926406e-07
18.4083,2.696569165,-0.06392062213,-32.11138028,4.95250925,0.1140891334,,180.0140626,9.33692203e-07,-2.270643095e-06,-1.76571963e-07
18.5,2.69656925,-0.06392043681,-32.1113802,4.952509337,0.1140889114,,180.0140626,9.514939628e-07,-2.61659555e-06,-2.050218204e-07
18.6083,2.696569378,-0.0639202739,-32.11138077,4.952509441,0.1140886107,,180.0140626,9.699915042e-07,-2.983898296e-06,-2.347430044e-07
18.7,2.696569452,-0.06391992431,-32.1113808,4.95250953,0.1140883314,,180.0140626,9.666061629e-07,-3.168886162e-06,-2.481580454e-07
18.8083,2.696569296,-0.06391989902,-32.11137991,4.952509636,0.1140879821,,180.0140625,9.780214994e-07,-3.319718892e-06,-2.623983669e-07
18.9,2.696569385,-0.06391943928,-32.11137977,4.952509726,0.1140876729,,180.0140625,9.898321255e-07,-3.439012975e-06,-2.713984129e-07
19.0083,2.696569445,-0.0639193286,-32.11138032,4.952509833,0.1140872974,,180.0140625,1.003228374e-06,-3.507049477e-06,-2.761781601e-07
19.1,2.696569499,-0.06391902209,-32.11137981,4.952509925,0.1140869736,,180.0140625,1.000657598e-06,-3.573258468e-06,-2.821470643e-07
19.2,2.696569491,-0.06391883934,-32.11137996,4.952510016,0.1140866444,,180.0140624,9.849872625e-07,-3.603406315e-06,-2.829092705e-07
19.3083,2.696569506,-0.06391855173,-32.11137988,4.952510132,0.1140862206,,180.0140624,9.96536091e-07,-3.636225058e-06,-2.854643494e-07
19.4,2.696569618,-0.06391859724,-32.11137979,4.952510222,0.114085886,,180.0140624,9.821066853e-07,-3.660397973e-06,-2.885953273e-07
19.5167,2.696569638,-0.06391844845,-32.11137957,4.952510329,0.1140854892,,180.0140623,9.977250953e-07,-3.669073021e-06,-2.908981662e-07
19.6083,2.696569622,-0.06391829988,-32.11137948,4.952510419,0.114085152,,180.0140623,9.93500239e-07,-3.678666858e-06,-2.919084261e-07
19.7,2.696569683,-0.06391815162,-32.11137952,4.952510509,0.1140848144,,180.0140623,9.92088239e-07,-3.690163527e-06,-2.935200567e-07
19.8167,2.696569902,-0.06391773341,-32.11138032,4.952510616,0.1140844141,,180.0140623,9.799926387e-07,-3.681835123e-06,-2.913629563e-07
19.9,2.696569917,-0.06391752775,-32.11137996,4.952510714,0.1140840431,,180.0140622,9.709734499e-07,-3.690957425e-06,-2.917020651e-07
20,2.696569892,-0.06391732557,-32.11137966,4.952510812,0.1140836742,,180.0140622,9.779851428e-07,-3.686687923e-06,-2.912857824e-07
20.1,2.69657007,-0.0639171214,-32.1113803,4.95251091,0.1140833024,,180.0140622,9.787494553e-07,-3.712091657e-06,-2.933913778e-07
20.2,2.696570062,-0.06391676841,-32.11137997,4.952511008,0.114082933,,180.0140621,9.69917016e-07,-3.688111577e-06,-2.897247083e-07
20.3,2.696570149,-0.06391668187,-32.11137997,4.952511106,0.1140825635,,180.0140621,9.664673534e-07,-3.68259392e-06,-2.921662551e-07
20.4,2.69657009,-0.06391664053,-32.1113798,4.952511204,0.1140821938,,180.0140621,9.731877142e-07,-3.701662939e-06,-2.934823749e-07
20.5,2.696570226,-0.06391621939,-32.1113798,4.952511302,0.1140818239,,180.0140621,9.793834399e-07,-3.706711751e-06,-2.918417772e-07
20.6,2.696570374,-0.06391600749,-32.11138114,4.9525114,0.1140814528,,180.014062,9.831787202e-07,-3.759154459e-06,-2.984867335e-07
20.7,2.696570242,-0.06391567829,-32.11137976,4.952511498,0.1140810802,,180.014062,9.805971493e-07,-3.699962572e-06,-2.912343596e-07
20.8,2.696570298,-0.06391583392,-32.11137979,4.952511579,0.1140807721,,180.014062,9.711569885e-07,-3.694318519e-06,-2.927772899e-07
20.9,2.69657037,-0.06391557878,-32.11137925,4.952511694,0.1140803383,,180.0140619,9.861154794e-07,-3.703584634e-06,-2.934748349e-07
21,2.696570377,-0.06391511389,-32.11137888,4.952511792,0.114079968,,180.0140619,9.92086818e-07,-3.702851261e-06,-2.912136469e-07
21.1,2.696570691,-0.0639150404,-32.11138049,4.95251189,0.1140795981,,180.0140619,9.795426559e-07,-3.700111749e-06,-2.934829415e-07
21.2,2.696570501,-0.06391484973,-32.11137901,4.952511988,0.1140792279,,180.0140618,9.86364748e-07,-3.701087652e-06,-2.926017867e-07
21.3,2.696570745,-0.06391459034,-32.11138057,4.952512087,0.1140788568,,180.0140618,9.877422206e-07,-3.748830744e-06,-2.987810245e-07
21.4,2.696570849,-0.06391430939,-32.11138059,4.952512185,0.1140784844,,180.0140618,9.7314536e-07,-3.759842231e-06,-2.971990678e-07
21.5,2.696570738,-0.06391411403,-32.11137915,4.952512283,0.1140781136,,180.0140618,9.720478127e-07,-3.692432684e-06,-2.909442079e-07
21.6,2.696570801,-0.06391418736,-32.11138008,4.952512381,0.1140777444,,180.0140617,9.687489951e-07,-3.705712275e-06,-2.94072689e-07
21.7,2.696570751,-0.06391376658,-32.11137861,4.952512478,0.1140773749,,180.0140617,9.713250032e-07,-3.690979609e-06,-2.915618913e-07
21.8,2.696570988,-0.06391359657,-32.11138027,4.952512576,0.1140770052,,180.0140617,9.768168306e-07,-3.697742683e-06,-2.919162874e-07
21.9,2.696571076,-0.06391338065,-32.11138074,4.952512674,0.1140766328,,180.0140616,9.751914525e-07,-3.712951621e-06,-2.933523059e-07
22.0167,2.69657095,-0.06391296524,-32.11137939,4.952512789,0.1140761992,,180.0140616,9.867115558e-07,-3.689250718e-06,-2.908869211e-07
22.1167,2.696570989,-0.06391299587,-32.11137919,4.952512887,0.1140758286,,180.0140616,9.927319281e-07,-3.715321784e-06,-2.946662305e-07
22.2167,2.696571127,-0.06391281113,-32.11138001,4.952512985,0.1140754589,,180.0140616,9.86949544e-07,-3.692863045e-06,-2.922399813e-07
22.3167,2.696571242,-0.06391240479,-32.11137912,4.952513083,0.1140750902,,180.0140615,9.835641372e-07,-3.690756514e-06,-2.906217726e-07
22.4167,2.69657137,-0.06391234397,-32.11138041,4.95251318,0.1140747212,,180.0140615,9.6908414e-07,-3.690407537e-06,-2.928469429e-07
22.5167,2.696571246,-0.06391210865,-32.11137962,4.952513278,0.1140743521,,180.0140615,9.750223396e-07,-3.693416542e-06,-2.917948893e-07
22.6167,2.696571376,-0.06391193623,-32.11137971,4.952513376,0.1140739804,,180.0140614,9.778866499e-07,-3.695234615e-06,-2.929308378e-07
22.7167,2.696571466,-0.06391171099,-32.11137937,4.952513474,0.1140736109,,180.0140614,9.689226697e-07,-3.697834225e-06,-2.918099127e-07
22.8167,2.696571501,-0.06391138378,-32.11138009,4.952513571,0.1140732415,,180.0140614,9.677041961e-07,-3.691420552e-06,-2.91091112e-07
22.9167,2.696571503,-0.06391143292,-32.11137987,4.952513668,0.1140728726,,180.0140613,9.690504373e-07,-3.69354006e-06,-2.936630127e-07
23.0167,2.696571605,-0.06391094609,-32.11138013,4.952513766,0.1140725033,,180.0140613,9.752915023e-07,-3.703921668e-06,-2.908850682e-07
23.1167,2.69657173,-0.0639108568,-32.11138054,4.952513864,0.1140721335,,180.0140613,9.729081811e-07,-3.687991679e-06,-2.917080003e-07
23.2167,2.69657172,-0.06391055991,-32.11138052,4.952513961,0.1140717628,,180.0140613,9.76106012e-07,-3.750368735e-06,-2.981697965e-07
23.3167,2.696571747,-0.06391058298,-32.11138015,4.952514043,0.1140714535,,180.0140612,9.752283343e-07,-3.687478369e-06,-2.925392289e-07
23.4167,2.696571757,-0.06391028988,-32.11137921,4.952514158,0.1140710205,,180.0140612,9.802175095e-07,-3.68714088e-06,-2.923469169e-07
23.5167,2.696571818,-0.06390978031,-32.11138018,4.952514256,0.1140706509,,180.0140612,9.860977107e-07,-3.740117744e-06,-2.953547238e-07
23.6167,2.696571875,-0.06390965738,-32.11137949,4.952514354,0.1140702791,,180.0140611,9.906840656e-07,-3.704837008e-06,-2.923987413e-07
23.7167,2.696571832,-0.06390979901,-32.11137932,4.952514452,0.1140699101,,180.0140611,9.848046237e-07,-3.684368336e-06,-2.922440381e-07
23.8167,2.696571999,-0.06390932273,-32.11137865,4.952514549,0.1140695395,,180.0140611,9.857916195e-07,-3.698283147e-06,-2.920362235e-07
23.9167,2.696572142,-0.06390916484,-32.11137925,4.952514648,0.1140691687,,180.0140611,9.71796217e-07,-3.694885896e-06,-2.918639387e-07
24.0167,2.696572124,-0.06390881554,-32.11137924,4.952514745,0.1140687988,,180.014061,9.802330268e-07,-3.679879564e-06,-2.904632024e-07
24.1167,2.69657225,-0.06390879286,-32.11138056,4.952514843,0.1140684304,,180.014061,9.791715228e-07,-3.722013813e-06,-2.969756868e-07
24.2333,2.696572277,-0.06390867852,-32.11137947,4.952514941,0.1140680612,,180.014061,9.650959998e-07,-3.675346606e-06,-2.911536592e-07
24.3167,2.696572337,-0.06390824154,-32.11137948,4.952515039,0.1140676912,,180.0140609,9.697838943e-07,-3.68057012e-06,-2.898266207e-07
24.4167,2.696572381,-0.06390814707,-32.11138012,4.952515136,0.114067324,,180.0140609,9.656255697e-07,-3.66752592e-06,-2.906450049e-07
24.5167,2.696572362,-0.06390784265,-32.11138,4.952515234,0.1140669561,,180.0140609,9.718214235e-07,-3.725959055e-06,-2.961136707e-07
24.6333,2.696572502,-0.06390772119,-32.11137981,4.952515331,0.114066587,,180.0140609,9.724943935e-07,-3.677895069e-06,-2.904816015e-07
24.7167,2.696572479,-0.06390741107,-32.11137971,4.952515412,0.114066278,,180.0140608,9.643783395e-07,-3.689414606e-06,-2.90868367e-07
24.8333,2.696572457,-0.06390740053,-32.11137934,4.952515527,0.1140658463,,180.0140608,9.797465115e-07,-3.680501407e-06,-2.911911394e-07
24.9167,2.696572582,-0.06390723796,-32.11137971,4.952515625,0.1140654762,,180.0140608,9.790044734e-07,-3.676284582e-06,-2.916346019e-07
25.0167,2.696572642,-0.06390696407,-32.1113792,4.952515722,0.1140651086,,180.0140607,9.698404617e-07,-3.688068884e-06,-2.909586173e-07
25.1167,2.696572749,-0.06390668822,-32.11137989,4.952515819,0.1140647415,,180.0140607,9.763733423e-07,-3.657408049e-06,-2.892045479e-07
25.2167,2.696572693,-0.06390666247,-32.11137967,4.952515916,0.1140643744,,180.0140607,9.826209303e-07,-3.676817797e-06,-2.914364732e-07
25.3167,2.696572828,-0.06390630631,-32.11137919,4.952516013,0.1140640066,,180.0140606,9.742267023e-07,-3.670363213e-06,-2.901531667e-07
25.4167,2.696573021,-0.06390607882,-32.11137957,4.95251611,0.1140636389,,180.0140606,9.802918524e-07,-3.67004055e-06,-2.900397129e-07
25.5333,2.696572908,-0.06390610191,-32.11137942,4.952516208,0.1140632707,,180.0140606,9.754395179e-07,-3.696721656e-06,-2.932592194e-07
25.6167,2.696572978,-0.0639056901,-32.11137952,4.952516306,0.1140628994,,180.0140606,9.718259067e-07,-3.691920571e-06,-2.918276456e-07
25.7167,2.696573165,-0.06390547382,-32.11138011,4.952516403,0.114062531,,180.0140605,9.579337104e-07,-3.687002807e-06,-2.91047613e-07
25.8167,2.69657314,-0.06390513517,-32.11138005,4.9525165,0.1140621633,,180.0140605,9.697926906e-07,-3.670558284e-06,-2.891285371e-07
25.9167,2.696573136,-0.06390520482,-32.11137969,4.952516597,0.114061795,,180.0140605,9.679997399e-07,-3.679715192e-06,-2.928050129e-07
26.0167,2.69657322,-0.06390498957,-32.11137959,4.952516695,0.1140614268,,180.0140604,9.644526235e-07,-3.687521758e-06,-2.921983508e-07
26.1167,2.69657324,-0.06390453479,-32.111379,4.952516792,0.1140610583,,180.0140604,9.721886492e-07,-3.67945743e-06,-2.897776374e-07
26.2167,2.696573313,-0.06390440327,-32.11137932,4.952516889,0.1140606896,,180.0140604,9.688658885e-07,-3.674390428e-06,-2.91254335e-07
26.3167,2.696573286,-0.06390423667,-32.11137873,4.952516971,0.1140603828,,180.0140604,9.756616274e-07,-3.679878093e-06,-2.905257207e-07
26.4167,2.696573432,-0.06390391257,-32.1113794,4.952517085,0.1140599506,,180.0140603,9.808158047e-07,-3.696850715e-06,-2.907455297e-07
26.5167,2.696573549,-0.06390385307,-32.11137975,4.952517183,0.1140595825,,180.0140603,9.699546525e-07,-3.678513654e-06,-2.908078207e-07
26.6167,2.696573418,-0.06390363718,-32.1113794,4.95251728,0.1140592146,,180.0140603,9.777414486e-07,-3.686346156e-06,-2.913317179e-07
26.7167,2.6965736,-0.06390339752,-32.11138034,4.952517377,0.1140588459,,180.0140602,9.884258973e-07,-3.720477081e-06,-2.967698581e-07
26.8167,2.696573641,-0.06390323118,-32.1113791,4.952517475,0.1140584767,,180.0140602,9.82837916e-07,-3.682102265e-06,-2.907142041e-07
26.9167,2.696573658,-0.06390300654,-32.11137926,4.952517556,0.1140581707,,180.0140602,9.798486158e-07,-3.662777526e-06,-2.90285847e-07
27.0167,2.696573799,-0.06390297122,-32.11137986,4.95251767,0.1140577396,,180.0140602,9.708272028e-07,-3.680588277e-06,-2.928814167e-07
27.1167,2.696573717,-0.06390247786,-32.11137845,4.952517767,0.1140573722,,180.0140601,9.675120306e-07,-3.662636985e-06,-2.888048985e-07
27.2167,2.696574001,-0.06390236238,-32.11138013,4.952517864,0.1140570054,,180.0140601,9.694742467e-07,-3.658129331e-06,-2.893288716e-07
27.3167,2.696573891,-0.06390234743,-32.11137961,4.952517961,0.1140566383,,180.0140601,9.696010141e-07,-3.685013932e-06,-2.92000959e-07
27.4167,2.696573918,-0.06390198688,-32.11137909,4.952518059,0.1140562709,,180.01406,9.597840428e-07,-3.664732678e-06,-2.897998345e-07
27.5167,2.6965741,-0.06390177998,-32.11137947,4.952518156,0.1140559036,,180.01406,9.70163719e-07,-3.668488668e-06,-2.900808728e-07
27.6167,2.696574142,-0.0639015717,-32.11138019,4.952518253,0.1140555358,,180.01406,9.673154494e-07,-3.679951098e-06,-2.908727426e-07
27.7167,2.696574098,-0.06390130785,-32.11137957,4.952518351,0.1140551642,,180.0140599,9.78545628e-07,-3.718472208e-06,-2.938714723e-07
27.8167,2.696574228,-0.06390119624,-32.11137942,4.952518449,0.1140547949,,180.0140599,9.721636104e-07,-3.671006716e-06,-2.909198984e-07
27.9083,2.696574268,-0.06390104506,-32.11137965,4.952518538,0.1140544591,,180.0140599,9.672088069e-07,-3.667035993e-06,-2.902586781e-07
28.0083,2.696574378,-0.06390078923,-32.11138006,4.952518635,0.1140540919,,180.0140599,9.586012477e-07,-3.685225934e-06,-2.907763696e-07
28.1083,2.696574382,-0.06390053258,-32.11137954,4.952518732,0.1140537248,,180.0140598,9.695665617e-07,-3.653211431e-06,-2.891157652e-07
28.2083,2.696574357,-0.06390050544,-32.11137967,4.952518828,0.1140533584,,180.0140598,9.70325739e-07,-3.673419509e-06,-2.912131075e-07
28.3167,2.696574525,-0.06390009977,-32.1113803,4.952518934,0.1140529609,,180.0140598,9.773343457e-07,-3.661181324e-06,-2.894841754e-07
28.4333,2.696574412,-0.06390008865,-32.11137902,4.952519031,0.1140525937,,180.0140597,9.861984291e-07,-3.679017939e-06,-2.917717013e-07
28.5167,2.696574593,-0.06389955316,-32.1113785,4.952519129,0.1140522239,,180.0140597,9.829621812e-07,-3.68451945e-06,-2.892113949e-07
28.6167,2.69657479,-0.06389941814,-32.11137961,4.952519227,0.1140518544,,180.0140597,9.817122052e-07,-3.683584681e-06,-2.913505665e-07
28.7167,2.69657469,-0.06389950174,-32.11137943,4.952519324,0.114051487,,180.0140597,9.684702268e-07,-3.68081279e-06,-2.92062127e-07
28.8167,2.696574746,-0.06389907835,-32.11137913,4.952519421,0.11405112,,180.0140596,9.60642583e-07,-3.673132467e-06,-2.900753723e-07
28.9167,2.696574891,-0.06389889773,-32.11137942,4.952519517,0.1140507535,,180.0140596,9.598081027e-07,-3.671483937e-06,-2.900187537e-07
29.0167,2.696574844,-0.06389850425,-32.1113796,4.952519614,0.1140503867,,180.0140596,9.638282613e-07,-3.66269629e-06,-2.885580259e-07
29.1167,2.696574917,-0.06389854214,-32.11137973,4.952519711,0.114050018,,180.0140595,9.701475895e-07,-3.666283812e-06,-2.909254341e-07
29.2167,2.696575078,-0.06389829134,-32.11138003,4.952519809,0.1140496489,,180.0140595,9.699810264e-07,-3.686610822e-06,-2.907775324e-07
29.3167,2.696575015,-0.06389792102,-32.1113791,4.952519907,0.1140492825,,180.0140595,9.692391454e-07,-3.649347922e-06,-2.873738855e-07
29.4167,2.696575075,-0.06389802328,-32.11138003,4.952520003,0.1140489167,,180.0140595,9.664908561e-07,-3.659944358e-06,-2.911962344e-07
29.5167,2.696575209,-0.06389771011,-32.11138002,4.9525201,0.1140485504,,180.0140594,9.640821246e-07,-3.681833316e-06,-2.901582914e-07
29.6167,2.696575163,-0.06389733658,-32.11137922,4.952520197,0.1140481836,,180.0140594,9.667742662e-07,-3.661672521e-06,-2.883005464e-07
29.7167,2.696575189,-0.06389732559,-32.11137961,4.952520294,0.114047815,,180.0140594,9.730332076e-07,-3.689827771e-06,-2.933717675e-07
29.8167,2.696575231,-0.06389695911,-32.11137934,4.952520391,0.114047448,,180.0140593,9.747809978e-07,-3.656136222e-06,-2.886661276e-07
29.9333,2.696575352,-0.06389682584,-32.11137926,4.952520489,0.1140470818,,180.0140593,9.804713308e-07,-3.653468196e-06,-2.890105189e-07
30.0167,2.696575362,-0.06389654876,-32.11137975,4.952520586,0.1140467136,,180.0140593,9.80413174e-07,-3.663588825e-06,-2.892602019e-07
30.1167,2.696575347,-0.06389643877,-32.11137935,4.952520683,0.1140463477,,180.0140593,9.809452032e-07,-3.650100758e-06,-2.888020432e-07
30.2167,2.696575611,-0.0638961882,-32.11137912,4.95252078,0.1140459815,,180.0140592,9.710503082e-07,-3.659662228e-06,-2.891891723e-07
30.3167,2.696575624,-0.0638960334,-32.11137958,4.952520876,0.1140456148,,180.0140592,9.72435537e-07,-3.669139648e-06,-2.901695748e-07
30.4167,2.696575637,-0.06389581208,-32.11137955,4.952520973,0.114045248,,180.0140592,9.625612697e-07,-3.660086392e-06,-2.895920677e-07
30.5167,2.696575771,-0.06389563773,-32.1113802,4.952521068,0.1140448815,,180.0140591,9.586067424e-07,-3.672908703e-06,-2.903479289e-07
30.6167,2.696575601,-0.06389536462,-32.11137916,4.952521165,0.1140445147,,180.0140591,9.67194848e-07,-3.672031324e-06,-2.899457984e-07
30.7167,2.696575763,-0.06389522396,-32.11137919,4.952521262,0.1140441478,,180.0140591,9.658604321e-07,-3.654655968e-06,-2.899468303e-07
30.8167,2.696575921,-0.06389500766,-32.11138017,4.952521359,0.1140437817,,180.0140591,9.676292914e-07,-3.669137361e-06,-2.892277182e-07
30.9167,2.696575859,-0.06389464877,-32.11137951,4.952521455,0.1140434154,,180.014059,9.686399034e-07,-3.65496446e-06,-2.881758294e-07
31.0167,2.696575916,-0.06389469518,-32.11137984,4.952521552,0.1140430493,,180.014059,9.700621487e-07,-3.65215908e-06,-2.905523816e-07
31.1167,2.696576007,-0.06389437637,-32.11137944,4.952521649,0.1140426831,,180.014059,9.757042584e-07,-3.669535981e-06,-2.894785081e-07
31.2167,2.696575955,-0.06389399111,-32.1113788,4.952521747,0.1140423145,,180.0140589,9.853768157e-07,-3.677912433e-06,-2.90054984e-07
31.3167,2.696576086,-0.06389406774,-32.11137987,4.952521844,0.1140419479,,180.0140589,9.736664138e-07,-3.656406697e-06,-2.905291256e-07
31.4167,2.696576264,-0.06389380434,-32.11137935,4.952521941,0.1140415823,,180.0140589,9.716872182e-07,-3.67211784e-06,-2.898906776e-07
31.5167,2.696576279,-0.06389342541,-32.11137888,4.952522037,0.1140412166,,180.0140588,9.742019659e-07,-3.654866865e-06,-2.878158939e-07
31.6167,2.696576293,-0.06389352239,-32.11137943,4.952522134,0.114040851,,180.0140588,9.627097606e-07,-3.66430863e-06,-2.915530127e-07
31.7333,2.696576476,-0.06389316524,-32.11137999,4.952522231,0.1140404853,,180.0140588,9.592359513e-07,-3.681339977e-06,-2.898871785e-07
31.8167,2.696576482,-0.06389284871,-32.11137953,4.952522328,0.1140401164,,180.0140588,9.708220119e-07,-3.650448172e-06,-2.887544432e-07
31.9167,2.696576432,-0.0638928635,-32.11137952,4.952522426,0.1140397489,,180.0140587,9.647983559e-07,-3.668535091e-06,-2.910777959e-07
32.0167,2.696576415,-0.06389243404,-32.11137888,4.952522523,0.1140393835,,180.0140587,9.649721061e-07,-3.64085015e-06,-2.873654372e-07
32.1167,2.696576621,-0.06389230069,-32.11137961,4.952522619,0.1140390184,,180.0140587,9.618263738e-07,-3.642352888e-06,-2.882614038e-07
32.2167,2.696576498,-0.06389208811,-32.11137893,4.9525227,0.1140387141,,180.0140587,9.548074653e-07,-3.649592188e-06,-2.881689639e-07
32.3167,2.696576556,-0.06389187394,-32.11137836,4.952522812,0.1140382852,,180.0140586,9.614802221e-07,-3.650362948e-06,-2.886478985e-07
32.4333,2.696576784,-0.06389165071,-32.11137975,4.952522909,0.1140379198,,180.0140586,9.661384774e-07,-3.644872515e-06,-2.87793301e-07
32.5167,2.696576711,-0.06389162588,-32.11137932,4.952523006,0.1140375522,,180.0140586,9.637111465e-07,-3.665313307e-06,-2.907544713e-07
32.6167,2.696576671,-0.063891219,-32.11137806,4.952523103,0.1140371851,,180.0140585,9.728265874e-07,-3.656475563e-06,-2.889488891e-07
32.7167,2.696576892,-0.06389114043,-32.11137962,4.952523184,0.1140368809,,180.0140585,9.596939862e-07,-3.645919995e-06,-2.875043841e-07
32.8083,2.696577067,-0.06389083481,-32.11137972,4.952523289,0.1140364841,,180.0140585,9.694292373e-07,-3.65162256e-06,-2.870776339e-07
32.9167,2.696576899,-0.06389065434,-32.11137858,4.952523394,0.1140360899,,180.0140584,9.746522956e-07,-3.634205942e-06,-2.869452698e-07
33.0167,2.696577038,-0.06389049376,-32.11137961,4.95252349,0.1140357257,,180.0140584,9.696454099e-07,-3.644418922e-06,-2.880500873e-07
33.1167,2.696576967,-0.063890436,-32.11137869,4.952523586,0.1140353606,,180.0140584,9.764687675e-07,-3.669139652e-06,-2.908717862e-07
33.2167,2.696577114,-0.06389002731,-32.11137815,4.952523683,0.1140349951,,180.0140584,9.730754147e-07,-3.649830807e-06,-2.884893487e-07
33.3167,2.696577308,-0.06388983288,-32.11137923,4.95252378,0.11403463,,180.0140583,9.737970409e-07,-3.64960157e-06,-2.882813672e-07
33.4167,2.696577256,-0.06388985819,-32.11137938,4.952523877,0.1140342645,,180.0140583,9.616177084e-07,-3.67100673e-06,-2.912782023e-07
33.5167,2.696577254,-0.06388937288,-32.11137821,4.952523973,0.1140338988,,180.0140583,9.615514864e-07,-3.653600675e-06,-2.88315625e-07
33.6167,2.696577433,-0.06388924208,-32.11137923,4.95252407,0.1140335334,,180.0140582,9.619558181e-07,-3.653527518e-06,-2.888737031e-07
33.7167,2.6965775,-0.06388903116,-32.1113798,4.952524167,0.1140331681,,180.0140582,9.555525129e-07,-3.655885509e-06,-2.889162358e-07
33.8167,2.696577536,-0.06388888341,-32.11137928,4.952524247,0.114032864,,180.0140582,9.596069133e-07,-3.658520846e-06,-2.891437635e-07
33.9167,2.696577582,-0.06388858356,-32.11137944,4.952524359,0.1140324357,,180.0140582,9.61330257e-07,-3.650049319e-06,-2.875702335e-07
34.0167,2.696577455,-0.06388840074,-32.11137893,4.952524456,0.1140320712,,180.0140581,9.591300038e-07,-3.649405152e-06,-2.884206007e-07
34.1167,2.69657762,-0.06388827763,-32.11137921,4.952524552,0.1140317063,,180.0140581,9.685759051e-07,-3.640428142e-06,-2.8876637e-07
34.2167,2.696577693,-0.06388799543,-32.11137912,4.952524649,0.1140313415,,180.0140581,9.609766093e-07,-3.647911498e-06,-2.877951554e-07
34.3167,2.696577602,-0.06388778029,-32.11137888,4.952524746,0.1140309765,,180.014058,9.621635514e-07,-3.656954354e-06,-2.887469942e-07
34.4167,2.69657773,-0.06388762823,-32.11137851,4.952524842,0.1140306113,,180.014058,9.651926985e-07,-3.637850108e-06,-2.89142873e-07
34.5333,2.696577892,-0.06388738495,-32.11137993,4.952524939,0.1140302442,,180.014058,9.650187423e-07,-3.658848896e-06,-2.886791492e-07
34.6167,2.696577849,-0.06388701485,-32.11137874,4.952525036,0.1140298767,,180.014058,9.685314564e-07,-3.63646233e-06,-2.866736111e-07
34.7167,2.696577909,-0.06388702071,-32.11137939,4.952525133,0.1140295111,,180.0140579,9.725854413e-07,-3.643022422e-06,-2.889595371e-07
34.8167,2.696578055,-0.06388669912,-32.11137962,4.952525229,0.1140291458,,180.0140579,9.754956902e-07,-3.66452149e-06,-2.888148401e-07
34.9167,2.696577992,-0.06388645871,-32.11137889,4.952525326,0.1140287817,,180.0140579,9.775736022e-07,-3.6233833e-06,-2.857725691e-07
35.0167,2.696578201,-0.06388644917,-32.11137929,4.952525422,0.1140284185,,180.0140578,9.664339386e-07,-3.631446464e-06,-2.879295551e-07
35.1167,2.696578276,-0.06388618606,-32.11137889,4.952525518,0.1140280548,,180.0140578,9.651891222e-07,-3.635709378e-06,-2.872073624e-07
35.2167,2.69657814,-0.06388598285,-32.11137836,4.952525614,0.1140276908,,180.0140578,9.606431352e-07,-3.63824261e-06,-2.876607321e-07
35.3167,2.696578354,-0.06388578481,-32.11137918,4.95252571,0.1140273267,,180.0140578,9.688620556e-07,-3.647146267e-06,-2.882829543e-07
35.4167,2.696578409,-0.06388555875,-32.11137882,4.952525807,0.1140269624,,180.0140577,9.579144183e-07,-3.643005046e-06,-2.876908081e-07
35.5167,2.696578279,-0.06388537498,-32.11137819,4.952525904,0.1140265978,,180.0140577,9.679730662e-07,-3.638061967e-06,-2.878678029e-07
35.6167,2.696578496,-0.06388512893,-32.11137915,4.952526,0.1140262334,,180.0140577,9.620686947e-07,-3.643889702e-06,-2.876842205e-07
35.7167,2.696578577,-0.06388496834,-32.11137975,4.952526096,0.114025869,,180.0140576,9.480609161e-07,-3.643548469e-06,-2.879301434e-07
35.8167,2.696578429,-0.06388471808,-32.11137827,4.952526192,0.1140255047,,180.0140576,9.623106923e-07,-3.636964174e-06,-2.873278853e-07
35.9167,2.696578637,-0.06388455028,-32.11137932,4.952526289,0.1140251407,,180.0140576,9.604789393e-07,-3.639721188e-06,-2.877669847e-07
36.0167,2.696578714,-0.06388428255,-32.11137949,4.952526386,0.1140247742,,180.0140576,9.58320433e-07,-3.647473999e-06,-2.879791091e-07
36.1167,2.696578642,-0.06388414441,-32.11137913,4.952526482,0.1140244101,,180.0140575,9.587239136e-07,-3.631436537e-06,-2.872116449e-07
36.2167,2.696578767,-0.0638838777,-32.11137902,4.952526578,0.114024046,,180.0140575,9.611838749e-07,-3.637352412e-06,-2.870580892e-07
36.3167,2.696578871,-0.06388364655,-32.11137976,4.952526674,0.11402368,,180.0140575,9.648909347e-07,-3.653026254e-06,-2.888903812e-07
36.4167,2.696578804,-0.06388341672,-32.11137882,4.952526771,0.1140233143,,180.0140574,9.740117844e-07,-3.660858219e-06,-2.889140502e-07
36.5333,2.696579002,-0.06388330893,-32.11137995,4.952526868,0.1140229501,,180.0140574,9.69048829e-07,-3.629988907e-06,-2.867898512e-07
36.6167,2.696578953,-0.06388306242,-32.11137923,4.952526965,0.1140225844,,180.0140574,9.658925489e-07,-3.635608647e-06,-2.873388245e-07
36.7167,2.696578918,-0.06388289228,-32.11137886,4.952527061,0.1140222216,,180.0140573,9.667226137e-07,-3.618219114e-06,-2.860946391e-07
36.8167,2.696579101,-0.0638826896,-32.11137918,4.952527157,0.1140218588,,180.0140573,9.681380185e-07,-3.623914279e-06,-2.862062998e-07
36.9167,2.696579101,-0.06388267231,-32.11137962,4.952527253,0.1140214957,,180.0140573,9.695769623e-07,-3.641023464e-06,-2.888045727e-07
37.0167,2.696579197,-0.06388221675,-32.11137859,4.952527349,0.1140211321,,180.0140573,9.68550328e-07,-3.629309858e-06,-2.864715203e-07
37.1167,2.696579352,-0.06388203606,-32.11137941,4.952527445,0.1140207686,,180.0140572,9.694665419e-07,-3.624606772e-06,-2.865631074e-07
37.2167,2.696579328,-0.06388203311,-32.11137939,4.952527541,0.1140204049,,180.0140572,9.560285177e-07,-3.642570666e-06,-2.887407004e-07
37.3167,2.696579419,-0.06388157143,-32.11137916,4.952527637,0.114020041,,180.0140572,9.611103672e-07,-3.639069298e-06,-2.864922078e-07
37.4167,2.696579419,-0.0638813514,-32.11137866,4.952527733,0.1140196757,,180.0140571,9.616239006e-07,-3.635512901e-06,-2.8723091e-07
37.5167,2.69657961,-0.06388108845,-32.11137972,4.952527829,0.1140193124,,180.0140571,9.466494836e-07,-3.628592218e-06,-2.86574447e-07
37.6167,2.696579506,-0.06388094552,-32.11137851,4.952527925,0.1140189494,,180.0140571,9.597046892e-07,-3.630211334e-06,-2.856775096e-07
37.7083,2.696579668,-0.06388069184,-32.11138025,4.952528021,0.1140185848,,180.0140571,9.546694649e-07,-3.67770081e-06,-2.928575194e-07
37.8167,2.69657967,-0.06388069483,-32.11137866,4.952528118,0.1140182205,,180.014057,9.543816659e-07,-3.627938742e-06,-2.861526259e-07
37.9167,2.69657965,-0.063880312,-32.11137862,4.952528214,0.1140178576,,180.014057,9.579374175e-07,-3.620501561e-06,-2.851228207e-07
38.0167,2.696579688,-0.06388037387,-32.11137872,4.95252831,0.1140174944,,180.014057,9.542058332e-07,-3.630982316e-06,-2.88832536e-07
38.1167,2.696579804,-0.06388004474,-32.11137899,4.952528406,0.1140171311,,180.0140569,9.621077742e-07,-3.646389944e-06,-2.873128453e-07
38.2333,2.696579764,-0.0638796299,-32.11137849,4.952528502,0.1140167674,,180.0140569,9.600697591e-07,-3.631314479e-06,-2.854832163e-07
38.3167,2.696579829,-0.063879708,-32.11137861,4.952528598,0.1140164017,,180.0140569,9.589289161e-07,-3.62540494e-06,-2.885387165e-07
38.4167,2.696580018,-0.06387947564,-32.11137995,4.952528694,0.1140160389,,180.0140569,9.65340272e-07,-3.633887633e-06,-2.866889163e-07
38.5167,2.696579918,-0.06387904839,-32.11137864,4.952528791,0.1140156762,,180.0140568,9.679236107e-07,-3.624076041e-06,-2.855105334e-07
38.6167,2.696579918,-0.06387900432,-32.11137798,4.952528887,0.1140153133,,180.0140568,9.59211999e-07,-3.634094479e-06,-2.869627484e-07
38.7167,2.696580162,-0.0638788125,-32.11137961,4.952528983,0.1140149502,,180.0140568,9.633029719e-07,-3.630350228e-06,-2.86713767e-07
38.8167,2.696580111,-0.06387882195,-32.11137949,4.952529078,0.1140145878,,180.0140567,9.670692262e-07,-3.64813076e-06,-2.892656888e-07
38.9167,2.69658014,-0.06387838365,-32.11137858,4.952529174,0.1140142245,,180.0140567,9.656170541e-07,-3.630719993e-06,-2.867811583e-07
39.0167,2.696580378,-0.06387816096,-32.11137894,4.95252927,0.1140138614,,180.0140567,9.669743505e-07,-3.631153546e-06,-2.86739121e-07
39.1167,2.696580321,-0.06387814502,-32.1113787,4.952529366,0.1140134981,,180.0140567,9.631590075e-07,-3.637499787e-06,-2.883596159e-07
39.2167,2.696580425,-0.06387771696,-32.11137852,4.952529462,0.1140131352,,180.0140566,9.548142597e-07,-3.634737683e-06,-2.86035795e-07
39.3167,2.696580526,-0.0638775826,-32.11137964,4.952529558,0.1140127723,,180.0140566,9.594981956e-07,-3.625530352e-06,-2.874274824e-07
39.4167,2.6965805,-0.06387751196,-32.11137909,4.952529654,0.1140124095,,180.0140566,9.560482107e-07,-3.634364849e-06,-2.878012875e-07
39.5167,2.696580596,-0.06387711535,-32.11137909,4.95252975,0.1140120465,,180.0140565,9.554144583e-07,-3.626654331e-06,-2.856932431e-07
39.6167,2.696580597,-0.0638771454,-32.11137937,4.952529846,0.1140116836,,180.0140565,9.605283776e-07,-3.630230119e-06,-2.886863319e-07
39.7167,2.696580611,-0.06387691599,-32.11137887,4.952529942,0.1140113208,,180.0140565,9.543183246e-07,-3.630524733e-06,-2.876444151e-07
39.8167,2.696580675,-0.0638764127,-32.11137842,4.952530039,0.1140109577,,180.0140565,9.555752869e-07,-3.623455367e-06,-2.850715737e-07
39.9167,2.696580675,-0.06387651404,-32.11137843,4.952530134,0.114010595,,180.0140564,9.537736874e-07,-3.617336044e-06,-2.877335332e-07
40.0167,2.69658084,-0.06387608355,-32.11137896,4.95253023,0.1140102306,,180.0140564,9.583062176e-07,-3.665183128e-06,-2.888032793e-07
40.1167,2.696580831,-0.06387586345,-32.11137903,4.952530326,0.1140098665,,180.0140564,9.555664042e-07,-3.620570446e-06,-2.856505254e-07
40.2167,2.69658085,-0.06387582223,-32.11137838,4.952530422,0.1140095039,,180.0140563,9.547837292e-07,-3.612859371e-06,-2.871138888e-07
40.3167,2.696581006,-0.06387559097,-32.11137966,4.952530518,0.1140091421,,180.0140563,9.474486354e-07,-3.621799034e-06,-2.85620532e-07
40.4167,2.696580869,-0.0638753488,-32.11137835,4.952530613,0.1140087797,,180.0140563,9.58768735e-07,-3.624568685e-06,-2.863647247e-07
40.5167,2.696581136,-0.06387518962,-32.1113796,4.952530709,0.1140084175,,180.0140563,9.624617899e-07,-3.625585614e-06,-2.867271726e-07
40.6167,2.696581214,-0.06387492147,-32.11137975,4.952530805,0.1140080554,,180.0140562,9.54176586e-07,-3.619754951e-06,-2.85989468e-07
40.7167,2.696581143,-0.06387491236,-32.11137912,4.952530901,0.1140076931,,180.0140562,9.643657314e-07,-3.634695988e-06,-2.882848728e-07
40.8167,2.696581204,-0.06387444273,-32.11137862,4.952530998,0.1140073304,,180.0140562,9.697539818e-07,-3.626340487e-06,-2.854308941e-07
40.9167,2.696581221,-0.06387452219,-32.11137927,4.952531093,0.1140069678,,180.0140561,9.666190781e-07,-3.631606332e-06,-2.888573298e-07
41.0167,2.696581317,-0.06387414763,-32.11137861,4.95253119,0.1140066033,,180.0140561,9.763403821e-07,-3.643599562e-06,-2.883447623e-07
41.1167,2.696581444,-0.06387382548,-32.11137832,4.952531286,0.1140062412,,180.0140561,9.601222316e-07,-3.609330649e-06,-2.84337337e-07
41.2167,2.696581516,-0.06387387437,-32.11137913,4.952531382,0.1140058796,,180.0140561,9.610730236e-07,-3.612577278e-06,-2.873478419e-07
41.3167,2.696581651,-0.0638735835,-32.11137965,4.952531477,0.1140055176,,180.014056,9.512354025e-07,-3.630260486e-06,-2.864094094e-07
41.4167,2.696581583,-0.06387315973,-32.11137919,4.952531572,0.1140051551,,180.014056,9.537455377e-07,-3.611139442e-06,-2.845151251e-07
41.5167,2.696581635,-0.06387317478,-32.11137833,4.952531668,0.1140047933,,180.014056,9.51245783e-07,-3.610354593e-06,-2.861508998e-07
41.6167,2.696581746,-0.06387294218,-32.11137923,4.952531764,0.1140044314,,180.0140559,9.541965564e-07,-3.620625964e-06,-2.855018614e-07
41.7167,2.696581672,-0.06387272504,-32.11137909,4.952531859,0.1140040691,,180.0140559,9.502774212e-07,-3.623471959e-06,-2.86386057e-07
41.8167,2.696581784,-0.06387249252,-32.11137856,4.952531955,0.1140037069,,180.0140559,9.519204755e-07,-3.615207961e-06,-2.856441874e-07
41.9167,2.696581879,-0.06387219113,-32.11137907,4.952532051,0.1140033437,,180.0140559,9.559578149e-07,-3.647547943e-06,-2.881364635e-07
42.0167,2.696581723,-0.06387202967,-32.11137813,4.952532147,0.1140029789,,180.0140558,9.61216516e-07,-3.620707059e-06,-2.860243981e-07
42.1167,2.696581946,-0.06387180267,-32.11137853,4.952532243,0.1140026177,,180.0140558,9.475380861e-07,-3.613365621e-06,-2.842663409e-07
42.2167,2.696581955,-0.06387185438,-32.11137915,4.952532339,0.1140022567,,180.0140558,9.526662084e-07,-3.61557215e-06,-2.874769456e-07
42.3333,2.696582081,-0.06387152701,-32.11137897,4.952532434,0.1140018957,,180.0140557,9.491234136e-07,-3.624093841e-06,-2.854513026e-07
42.4167,2.696582057,-0.06387114912,-32.11137824,4.95253253,0.114001532,,180.0140557,9.531062288e-07,-3.608641709e-06,-2.843307907e-07
42.5167,2.69658214,-0.06387121808,-32.11137923,4.952532625,0.1140011711,,180.0140557,9.547763777e-07,-3.603643384e-06,-2.860198459e-07
42.6167,2.696582205,-0.06387080349,-32.1113786,4.952532705,0.1140008702,,180.0140557,9.485602974e-07,-3.598254574e-06,-2.833641263e-07
42.7167,2.696582106,-0.06387065093,-32.11137787,4.952532817,0.1140004446,,180.0140556,9.660420838e-07,-3.618537747e-06,-2.862571714e-07
42.8167,2.696582269,-0.06387055025,-32.11137856,4.952532913,0.1140000838,,180.0140556,9.623274642e-07,-3.58913073e-06,-2.84690432e-07
42.9167,2.696582444,-0.06387027892,-32.1113799,4.952533008,0.1139997237,,180.0140556,9.513839438e-07,-3.600635108e-06,-2.843771497e-07
43.0167,2.696582304,-0.06387005495,-32.11137855,4.952533104,0.1139993632,,180.0140555,9.583728416e-07,-3.604215471e-06,-2.84603405e-07
43.1167,2.696582367,-0.06386977924,-32.11137796,4.952533199,0.1139990023,,180.0140555,9.649119561e-07,-3.611299309e-06,-2.84433844e-07
43.2167,2.696582476,-0.06386982453,-32.1113792,4.952533295,0.1139986415,,180.0140555,9.621566429e-07,-3.610977462e-06,-2.865398293e-07
43.3167,2.696582625,-0.06386955025,-32.1113795,4.952533391,0.1139982803,,180.0140555,9.653591919e-07,-3.62622504e-06,-2.859108682e-07
43.4167,2.696582644,-0.06386913849,-32.11137829,4.952533486,0.113997919,,180.0140554,9.620219207e-07,-3.606735217e-06,-2.84253893e-07
43.5167,2.696582729,-0.06386912167,-32.11137865,4.952533581,0.1139975576,,180.0140554,9.568111359e-07,-3.608759054e-06,-2.859737299e-07
43.6167,2.69658288,-0.06386887909,-32.11137953,4.952533677,0.1139971965,,180.0140554,9.492330585e-07,-3.605021063e-06,-2.846350274e-07
43.7167,2.696582718,-0.06386870654,-32.11137818,4.952533772,0.1139968355,,180.0140553,9.558087106e-07,-3.601778623e-06,-2.850573348e-07
43.8167,2.696582953,-0.06386844507,-32.11137885,4.952533868,0.1139964745,,180.0140553,9.482247068e-07,-3.606530923e-06,-2.850097071e-07
43.9167,2.696582935,-0.06386840118,-32.11137926,4.952533963,0.1139961134,,180.0140553,9.537650441e-07,-3.626152951e-06,-2.880577628e-07
44.0167,2.696582996,-0.0638681959,-32.11137924,4.952534059,0.113995752,,180.0140553,9.429757855e-07,-3.619695458e-06,-2.869685723e-07
44.1167,2.696583028,-0.06386774078,-32.11137855,4.952534154,0.1139953908,,180.0140552,9.479628324e-07,-3.607428264e-06,-2.840749119e-07
44.2167,2.69658303,-0.06386778077,-32.11137878,4.95253425,0.1139950275,,180.0140552,9.516336488e-07,-3.61715655e-06,-2.872846265e-07
44.3167,2.696583199,-0.06386745156,-32.1113793,4.952534345,0.1139946663,,180.0140552,9.460505373e-07,-3.613316545e-06,-2.845390662e-07
44.4167,2.696583038,-0.06386730077,-32.11137836,4.952534441,0.1139943058,,180.0140551,9.479116826e-07,-3.606708753e-06,-2.853889135e-07
44.5167,2.696583281,-0.0638670396,-32.11137934,4.952534536,0.1139939452,,180.0140551,9.550745204e-07,-3.610159854e-06,-2.850848236e-07
44.6167,2.696583332,-0.06386672591,-32.1113797,4.952534632,0.1139935836,,180.0140551,9.508619857e-07,-3.654622156e-06,-2.894613445e-07
44.7167,2.69658324,-0.06386659923,-32.11137866,4.952534727,0.1139932217,,180.0140551,9.532389368e-07,-3.593066891e-06,-2.839558385e-07
44.8167,2.696583387,-0.0638663361,-32.11137866,4.952534823,0.1139928617,,180.014055,9.462288468e-07,-3.605686872e-06,-2.837503148e-07
44.9167,2.696583394,-0.06386642037,-32.11137936,4.952534918,0.1139925014,,180.014055,9.469884248e-07,-3.607700855e-06,-2.871107834e-07
45.0167,2.696583564,-0.06386608697,-32.11137931,4.952535014,0.1139921413,,180.014055,9.565797735e-07,-3.618849831e-06,-2.851830001e-07
45.1167,2.696583483,-0.06386573599,-32.11137877,4.952535109,0.1139917809,,180.0140549,9.54946056e-07,-3.600950027e-06,-2.840169095e-07
45.2167,2.696583607,-0.06386567759,-32.11137918,4.952535204,0.1139914203,,180.0140549,9.510270735e-07,-3.59835111e-06,-2.850777907e-07
45.3167,2.696583624,-0.06386541072,-32.11137854,4.9525353,0.1139910594,,180.0140549,9.576659463e-07,-3.605552116e-06,-2.847559571e-07
45.4167,2.696583611,-0.06386525412,-32.111379,4.952535395,0.113990699,,180.0140549,9.620926848e-07,-3.591783439e-06,-2.841268453e-07
45.5167,2.696583714,-0.06386492697,-32.11137815,4.95253549,0.1139903387,,180.0140548,9.550460126e-07,-3.61468277e-06,-2.843051933e-07
45.6167,2.696583728,-0.06386493392,-32.11137889,4.952535586,0.1139899779,,180.0140548,9.63886317e-07,-3.61061698e-06,-2.868581385e-07
45.7167,2.696583908,-0.06386466254,-32.11137948,4.952535681,0.1139896181,,180.0140548,9.673525022e-07,-3.61965628e-06,-2.851398876e-07
45.8167,2.696583945,-0.06386431903,-32.11137852,4.952535776,0.1139892574,,180.0140547,9.551191406e-07,-3.599128614e-06,-2.838821839e-07
45.9167,2.696584026,-0.06386428446,-32.11137839,4.952535872,0.1139888971,,180.0140547,9.624117243e-07,-3.597172199e-06,-2.851477032e-07
46.0167,2.696584081,-0.06386399565,-32.11137856,4.952535967,0.1139885367,,180.0140547,9.447364239e-07,-3.600916811e-06,-2.841070738e-07
46.1167,2.696584016,-0.06386381373,-32.11137803,4.952536062,0.1139881764,,180.0140547,9.507824941e-07,-3.590101268e-06,-2.840014644e-07
46.2167,2.696584175,-0.06386350722,-32.11137841,4.952536157,0.1139878162,,180.0140546,9.529588231e-07,-3.611741774e-06,-2.841270483e-07
46.3167,2.696584191,-0.06386356155,-32.11137891,4.952536252,0.113987456,,180.0140546,9.479052608e-07,-3.608760119e-06,-2.869969691e-07
46.4167,2.69658437,-0.0638632646,-32.11137922,4.952536348,0.1139870957,,180.0140546,9.468997686e-07,-3.622006648e-06,-2.853971788e-07
46.5167,2.696584297,-0.0638629022,-32.11137898,4.952536443,0.1139867351,,180.0140545,9.500913944e-07,-3.59562231e-06,-2.836936326e-07
46.6167,2.696584343,-0.06386279791,-32.11137865,4.952536538,0.1139863733,,180.0140545,9.507752912e-07,-3.617096197e-06,-2.866350159e-07
46.7167,2.696584483,-0.06386262976,-32.11137896,4.952536634,0.1139860125,,180.0140545,9.444655153e-07,-3.595209604e-06,-2.839771827e-07
46.8167,2.696584329,-0.06386240743,-32.11137781,4.952536729,0.1139856529,,180.0140545,9.51732216e-07,-3.589641427e-06,-2.837780854e-07
46.9167,2.696584537,-0.06386208679,-32.11137862,4.952536824,0.1139852937,,180.0140544,9.381368753e-07,-3.605824126e-06,-2.835010203e-07
47.0167,2.696584525,-0.06386223389,-32.11137869,4.952536904,0.1139849942,,180.0140544,9.43461606e-07,-3.606300048e-06,-2.860879326e-07
47.1167,2.69658465,-0.06386181797,-32.11137884,4.952537015,0.1139845719,,180.0140544,9.485824513e-07,-3.616600734e-06,-2.849590319e-07
47.2167,2.696584639,-0.06386149656,-32.11137812,4.95253711,0.1139842128,,180.0140544,9.418508964e-07,-3.581080764e-06,-2.821805672e-07
47.3167,2.696584688,-0.06386145709,-32.11137876,4.952537205,0.1139838538,,180.0140543,9.474232274e-07,-3.578808477e-06,-2.836842535e-07
47.4333,2.696584809,-0.06386119027,-32.11137916,4.9525373,0.1139834946,,180.0140543,9.461484087e-07,-3.588776115e-06,-2.833719556e-07
47.5167,2.696584718,-0.06386093467,-32.11137843,4.952537395,0.1139831329,,180.0140543,9.503150459e-07,-3.594632326e-06,-2.840708768e-07
47.6083,2.696584957,-0.06386062623,-32.1113789,4.952537483,0.1139828017,,180.0140542,9.534650159e-07,-3.621299547e-06,-2.844751782e-07
47.7167,2.696584925,-0.06386068313,-32.11137857,4.952537586,0.1139824128,,180.0140542,9.525511644e-07,-3.592091254e-06,-2.837726387e-07
47.8167,2.696585081,-0.06386042845,-32.11137962,4.95253768,0.1139820544,,180.0140542,9.509225982e-07,-3.599434807e-06,-2.836198692e-07
47.9167,2.696584917,-0.06386004418,-32.11137782,4.952537776,0.1139816956,,180.0140542,9.629277334e-07,-3.578032747e-06,-2.820072452e-07
48.0167,2.696585015,-0.06386002495,-32.11137828,4.95253787,0.1139813366,,180.0140541,9.519018199e-07,-3.581183239e-06,-2.840898399e-07
48.1167,2.696585214,-0.0638597843,-32.11137949,4.952537965,0.1139809775,,180.0140541,9.507983841e-07,-3.595298998e-06,-2.841715634e-07
48.2167,2.696585136,-0.06385968687,-32.1113787,4.95253806,0.1139806184,,180.0140541,9.572980996e-07,-3.597150061e-06,-2.84895996e-07
48.3167,2.696585202,-0.0638592582,-32.1113785,4.952538155,0.1139802593,,180.014054,9.585110753e-07,-3.587699593e-06,-2.824466375e-07
48.4167,2.696585368,-0.06385932473,-32.11137893,4.95253825,0.1139799002,,180.014054,9.548410511e-07,-3.586571822e-06,-2.853294008e-07
48.5167,2.696585479,-0.06385896714,-32.11137932,4.952538344,0.1139795406,,180.014054,9.391987263e-07,-3.594340758e-06,-2.8320094e-07
48.6167,2.696585305,-0.0638587645,-32.11137776,4.952538439,0.1139791813,,180.014054,9.503759256e-07,-3.589149376e-06,-2.835736871e-07
48.7167,2.696585565,-0.06385861965,-32.11137914,4.952538518,0.1139788818,,180.0140539,9.492006702e-07,-3.588904875e-06,-2.836748674e-07
48.8167,2.696585487,-0.06385852538,-32.11137867,4.95253863,0.1139784607,,180.0140539,9.495966863e-07,-3.596011357e-06,-2.851401424e-07
48.9167,2.696585522,-0.06385800918,-32.1113784,4.952538725,0.1139781017,,180.0140539,9.437043721e-07,-3.59074479e-06,-2.818495176e-07
49.0167,2.696585526,-0.0638579087,-32.111378,4.952538821,0.1139777412,,180.0140538,9.540400973e-07,-3.626139818e-06,-2.863237638e-07
49.1167,2.696585634,-0.06385782268,-32.11137791,4.952538916,0.1139773816,,180.0140538,9.457094761e-07,-3.580428076e-06,-2.838218941e-07
49.2167,2.696585752,-0.06385761,-32.11137903,4.95253901,0.1139770237,,180.0140538,9.353564469e-07,-3.581640652e-06,-2.830422204e-07
49.3167,2.696585725,-0.06385729914,-32.11137846,4.952539105,0.1139766651,,180.0140538,9.436175524e-07,-3.581225116e-06,-2.827390232e-07
49.4167,2.696585831,-0.06385711874,-32.11137846,4.9525392,0.113976306,,180.0140537,9.520551884e-07,-3.574053576e-06,-2.829141681e-07
49.5167,2.69658587,-0.0638570668,-32.11137883,4.952539294,0.1139759475,,180.0140537,9.402202076e-07,-3.585891556e-06,-2.844940593e-07
49.6167,2.696585995,-0.06385678569,-32.11137863,4.95253939,0.113975589,,180.0140537,9.501114132e-07,-3.594344128e-06,-2.832616298e-07
49.7167,2.696585879,-0.06385662887,-32.1113785,4.952539484,0.11397523,,180.0140536,9.518749529e-07,-3.588041215e-06,-2.839870342e-07
49.8167,2.69658608,-0.0638563117,-32.11137867,4.952539579,0.113974871,,180.0140536,9.496007669e-07,-3.581047518e-06,-2.825910762e-07
49.9167,2.696586024,-0.06385631422,-32.11137873,4.952539674,0.1139745121,,180.0140536,9.617238025e-07,-3.589771815e-06,-2.846948063e-07
50.0167,2.696586212,-0.06385600596,-32.11137924,4.952539769,0.113974154,,180.0140536,9.531037169e-07,-3.601008804e-06,-2.837253872e-07
50.1167,2.696586067,-0.06385580201,-32.11137784,4.952539864,0.113973795,,180.0140535,9.611444922e-07,-3.597397119e-06,-2.843094954e-07
50.2167,2.696586242,-0.0638555577,-32.11137849,4.952539959,0.1139734364,,180.0140535,9.628628907e-07,-3.591231209e-06,-2.836684868e-07
50.3167,2.696586302,-0.06385534263,-32.11137909,4.952540054,0.1139730777,,180.0140535,9.626795085e-07,-3.582258555e-06,-2.83212254e-07
50.4167,2.696586346,-0.06385507301,-32.11137795,4.952540149,0.1139727189,,180.0140534,9.56324956e-07,-3.583771312e-06,-2.82888252e-07
50.5167,2.696586457,-0.06385481707,-32.11137791,4.952540244,0.1139723603,,180.0140534,9.519981545e-07,-3.583456486e-06,-2.821526378e-07
50.6167,2.696586541,-0.06385488871,-32.11137912,4.952540339,0.1139720021,,180.0140534,9.377520281e-07,-3.58152678e-06,-2.842053747e-07
50.7167,2.696586573,-0.06385455457,-32.11137808,4.952540433,0.1139716439,,180.0140534,9.442824666e-07,-3.582211551e-06,-2.826657239e-07
50.8167,2.696586547,-0.06385434954,-32.11137844,4.952540528,0.1139712855,,180.0140533,9.450428077e-07,-3.573315398e-06,-2.824779626e-07
50.9167,2.696586724,-0.0638541357,-32.11137846,4.952540623,0.1139709273,,180.0140533,9.356600023e-07,-3.569402911e-06,-2.823197256e-07
51.0167,2.696586719,-0.06385408864,-32.1113785,4.952540717,0.1139705694,,180.0140533,9.42066228e-07,-3.582680707e-06,-2.849395195e-07
51.1167,2.696586817,-0.0638537472,-32.1113789,4.952540811,0.1139702114,,180.0140532,9.383271583e-07,-3.59004342e-06,-2.826537327e-07
51.2167,2.696586691,-0.06385359221,-32.11137781,4.952540906,0.1139698534,,180.0140532,9.424008582e-07,-3.580062438e-06,-2.833661997e-07
51.3167,2.69658691,-0.06385330983,-32.11137842,4.952541001,0.1139694945,,180.0140532,9.457162739e-07,-3.58256315e-06,-2.831336178e-07
51.4167,2.696586831,-0.06385329157,-32.11137796,4.952541096,0.1139691358,,180.0140532,9.449746437e-07,-3.597467085e-06,-2.859377771e-07
51.5083,2.696587005,-0.06385289979,-32.11137833,4.952541175,0.1139688374,,180.0140531,9.465211959e-07,-3.583628489e-06,-2.822164219e-07
51.6083,2.69658704,-0.0638528561,-32.11137816,4.952541278,0.1139684482,,180.0140531,9.428496988e-07,-3.583503682e-06,-2.838870942e-07
51.7083,2.696587024,-0.06385239655,-32.11137823,4.952541373,0.1139680903,,180.0140531,9.441131154e-07,-3.565822279e-06,-2.816730983e-07
51.8167,2.696587191,-0.06385222238,-32.11137834,4.952541475,0.1139677022,,180.014053,9.411921098e-07,-3.593675958e-06,-2.829332778e-07
51.9083,2.696587256,-0.06385212605,-32.11137919,4.952541562,0.1139673732,,180.014053,9.403733887e-07,-3.582093334e-06,-2.830830552e-07
52.0167,2.696587159,-0.06385179535,-32.1113778,4.952541665,0.1139669848,,180.014053,9.425540848e-07,-3.573056569e-06,-2.811362246e-07
52.1167,2.696587252,-0.06385159201,-32.11137788,4.952541751,0.1139666564,,180.014053,9.396279927e-07,-3.567032976e-06,-2.806013953e-07
52.2167,2.696587349,-0.06385155165,-32.11137865,4.952541854,0.1139662688,,180.0140529,9.456473014e-07,-3.568682711e-06,-2.813197459e-07
52.3083,2.696587513,-0.06385133638,-32.11137946,4.952541941,0.1139659409,,180.0140529,9.38674217e-07,-3.578182987e-06,-2.824279372e-07
52.4167,2.69658743,-0.06385102495,-32.11137795,4.952542043,0.1139655536,,180.0140529,9.443042689e-07,-3.577103772e-06,-2.813310436e-07
52.5083,2.696587537,-0.0638508991,-32.11137859,4.952542114,0.1139652848,,180.0140529,9.410048678e-07,-3.567059872e-06,-2.814303225e-07
52.6083,2.696587445,-0.0638508375,-32.11137795,4.952542225,0.1139648655,,180.0140528,9.474592844e-07,-3.566154442e-06,-2.834860339e-07
52.7083,2.69658765,-0.06385053936,-32.11137877,4.952542319,0.1139645086,,180.0140528,9.423191367e-07,-3.57110657e-06,-2.82118049e-07
52.8167,2.696587602,-0.06385021126,-32.11137803,4.952542421,0.1139641216,,180.0140528,9.535478691e-07,-3.578784561e-06,-2.814430922e-07
52.9167,2.696587674,-0.06385017282,-32.11137927,4.952542516,0.1139637646,,180.0140527,9.571423721e-07,-3.626637494e-06,-2.894215653e-07
53.0167,2.696587719,-0.06384995918,-32.11137812,4.952542611,0.113963404,,180.0140527,9.562433779e-07,-3.578041945e-06,-2.836391519e-07
53.1167,2.696587642,-0.06384987544,-32.11137781,4.95254269,0.1139631068,,180.0140527,9.511238509e-07,-3.561181026e-06,-2.832958312e-07
53.2167,2.696587786,-0.06384949382,-32.11137802,4.9525428,0.1139626888,,180.0140527,9.515496623e-07,-3.568245657e-06,-2.818262733e-07
53.3167,2.696587991,-0.0638493313,-32.1113781,4.952542895,0.1139623331,,180.0140526,9.433184912e-07,-3.550586684e-06,-2.808151202e-07
53.4167,2.696588045,-0.06384915374,-32.11137857,4.952542989,0.1139619746,,180.0140526,9.523794381e-07,-3.5750134e-06,-2.8291638e-07
53.5167,2.69658803,-0.06384877777,-32.11137767,4.952543083,0.113961618,,180.0140526,9.468163216e-07,-3.544452423e-06,-2.79292766e-07
53.6167,2.696588071,-0.06384863764,-32.11137814,4.952543178,0.1139612607,,180.0140525,9.426651781e-07,-3.585606163e-06,-2.830916743e-07
53.7167,2.696588092,-0.0638485413,-32.1113787,4.952543256,0.1139609631,,180.0140525,9.493581766e-07,-3.563901224e-06,-2.817274325e-07
53.8167,2.696588218,-0.06384848059,-32.11137878,4.952543367,0.1139605453,,180.0140525,9.459492164e-07,-3.565978686e-06,-2.828031612e-07
53.9167,2.696588247,-0.06384789557,-32.11137772,4.952543462,0.1139601872,,180.0140525,9.461306142e-07,-3.562044151e-06,-2.802361493e-07
54.0167,2.696588249,-0.06384794816,-32.11137811,4.952543556,0.1139598312,,180.0140524,9.292059453e-07,-3.557882824e-06,-2.813038215e-07
54.1167,2.696588407,-0.06384773093,-32.11137824,4.952543651,0.1139594755,,180.0140524,9.372016804e-07,-3.550279171e-06,-2.80608057e-07
54.2167,2.696588404,-0.0638476912,-32.11137893,4.952543744,0.1139591198,,180.0140524,9.332213077e-07,-3.557047888e-06,-2.82132217e-07
54.3167,2.696588441,-0.06384716794,-32.11137786,4.952543839,0.1139587634,,180.0140523,9.309415549e-07,-3.5591001e-06,-2.798714929e-07
54.4167,2.69658839,-0.06384714568,-32.11137757,4.952543933,0.1139584074,,180.0140523,9.381616449e-07,-3.562307772e-06,-2.816288934e-07
54.5167,2.696588631,-0.06384690449,-32.11137912,4.952544027,0.1139580508,,180.0140523,9.382781086e-07,-3.555207055e-06,-2.808486026e-07
54.6167,2.696588533,-0.06384685196,-32.11137763,4.952544121,0.1139576942,,180.0140523,9.330525813e-07,-3.56433694e-06,-2.824491911e-07
54.7167,2.696588684,-0.06384657359,-32.11137798,4.952544216,0.1139573374,,180.0140522,9.358980645e-07,-3.577142247e-06,-2.824727678e-07
54.8167,2.6965886,-0.06384632376,-32.11137812,4.95254431,0.1139569805,,180.0140522,9.339407705e-07,-3.561680198e-06,-2.81319633e-07
54.9167,2.69658888,-0.06384618579,-32.11137917,4.952544388,0.1139566837,,180.0140522,9.347756208e-07,-3.559602907e-06,-2.809783247e-07
55.0167,2.696588763,-0.06384602727,-32.11137844,4.952544499,0.1139562653,,180.0140521,9.415046108e-07,-3.565437176e-06,-2.825928214e-07
55.1167,2.69658892,-0.0638457566,-32.11137876,4.952544593,0.113955909,,180.0140521,9.292991256e-07,-3.571087549e-06,-2.814102762e-07
55.2167,2.696588796,-0.06384554577,-32.11137766,4.952544688,0.1139555509,,180.0140521,9.444111573e-07,-3.569933381e-06,-2.824483321e-07
55.3167,2.696588996,-0.06384528038,-32.11137866,4.952544782,0.1139551947,,180.0140521,9.338857624e-07,-3.549434405e-06,-2.801666013e-07
55.4167,2.696588917,-0.06384525916,-32.11137849,4.952544875,0.113954839,,180.014052,9.336567865e-07,-3.558077209e-06,-2.82013021e-07
55.5167,2.696589127,-0.06384497326,-32.1113788,4.95254497,0.1139544831,,180.014052,9.383280773e-07,-3.56916424e-06,-2.813601034e-07
55.6167,2.696589018,-0.06384476451,-32.1113782,4.952545064,0.1139541268,,180.014052,9.445304728e-07,-3.556847803e-06,-2.812552796e-07
55.7167,2.696589188,-0.06384449727,-32.11137798,4.952545158,0.1139537702,,180.0140519,9.358436265e-07,-3.55763383e-06,-2.810280192e-07
55.8167,2.696589141,-0.06384445915,-32.11137795,4.952545252,0.1139534141,,180.0140519,9.399370157e-07,-3.563361627e-06,-2.832884818e-07
55.9333,2.696589288,-0.06384413711,-32.11137806,4.952545347,0.1139530584,,180.0140519,9.469461106e-07,-3.562988644e-06,-2.811564082e-07
56.0167,2.696589185,-0.06384392031,-32.11137749,4.952545441,0.1139527,,180.0140519,9.488447028e-07,-3.56026429e-06,-2.813996528e-07
56.1167,2.696589404,-0.06384374334,-32.11137837,4.952545536,0.1139523443,,180.0140518,9.456507075e-07,-3.548034978e-06,-2.806272727e-07
56.2167,2.696589344,-0.06384367223,-32.11137791,4.95254563,0.1139519888,,180.0140518,9.504399935e-07,-3.560213334e-06,-2.831051302e-07
56.3167,2.69658947,-0.06384330799,-32.11137789,4.952545724,0.1139516322,,180.0140518,9.469958167e-07,-3.565961068e-06,-2.806810568e-07
56.4167,2.696589357,-0.06384316788,-32.11137752,4.952545818,0.1139512763,,180.0140518,9.514032822e-07,-3.549244633e-06,-2.808809136e-07
56.5167,2.696589533,-0.0638428227,-32.11137785,4.952545912,0.1139509205,,180.0140517,9.464968129e-07,-3.55989658e-06,-2.801714996e-07
56.6333,2.696589543,-0.06384286587,-32.11137782,4.952546006,0.1139505644,,180.0140517,9.539607049e-07,-3.556025523e-06,-2.821179299e-07
56.7167,2.69658971,-0.06384256528,-32.11137862,4.952546101,0.1139502061,,180.0140517,9.585164586e-07,-3.567808187e-06,-2.81325938e-07
56.8167,2.69658968,-0.06384229121,-32.11137717,4.952546195,0.1139498502,,180.0140516,9.410633907e-07,-3.547380192e-06,-2.803084301e-07
56.9167,2.696589894,-0.06384201696,-32.11137789,4.95254629,0.1139494949,,180.0140516,9.476407842e-07,-3.55475552e-06,-2.796617408e-07
57.0083,2.69658983,-0.06384168223,-32.11137784,4.952546376,0.1139491665,,180.0140516,9.659129275e-07,-3.573616977e-06,-2.822384302e-07
57.1167,2.696590076,-0.06384167169,-32.11137827,4.952546478,0.1139487812,,180.0140516,9.34800385e-07,-3.551534478e-06,-2.785133337e-07
57.2083,2.696589848,-0.06384155106,-32.11137769,4.952546556,0.1139484853,,180.0140515,9.531595881e-07,-3.553768114e-06,-2.80054043e-07
57.3167,2.696590009,-0.06384122494,-32.11137745,4.952546666,0.1139480703,,180.0140515,9.405753495e-07,-3.544719971e-06,-2.789664311e-07
57.4167,2.696590088,-0.06384125242,-32.11137854,4.95254676,0.1139477155,,180.0140515,9.340765877e-07,-3.537424407e-06,-2.806835052e-07
57.5167,2.696590281,-0.06384090348,-32.11137864,4.952546854,0.1139473585,,180.0140514,9.381325767e-07,-3.567662769e-06,-2.821073735e-07
57.6083,2.696590239,-0.06384080631,-32.1113788,4.952546949,0.1139470016,,180.0140514,9.399159835e-07,-3.58378367e-06,-2.837405926e-07
57.7167,2.696590336,-0.06384034384,-32.11137831,4.952547043,0.1139466463,,180.0140514,9.347913815e-07,-3.537666784e-06,-2.792462087e-07
57.8167,2.696590204,-0.06384037059,-32.1113776,4.952547137,0.1139462914,,180.0140514,9.295679706e-07,-3.549498321e-06,-2.809166068e-07
57.9167,2.696590436,-0.0638401614,-32.11137851,4.95254723,0.1139459369,,180.0140513,9.245111402e-07,-3.540502198e-06,-2.798828701e-07
58.0167,2.696590398,-0.06384009266,-32.11137853,4.952547324,0.113945582,,180.0140513,9.278299413e-07,-3.546088362e-06,-2.811832e-07
58.1167,2.696590421,-0.06383962545,-32.11137748,4.952547402,0.113945286,,180.0140513,9.316884932e-07,-3.547919053e-06,-2.791564217e-07
58.2167,2.696590435,-0.06383953919,-32.11137805,4.952547512,0.1139448697,,180.0140512,9.306137263e-07,-3.552407354e-06,-2.808512707e-07
58.3167,2.696590588,-0.06383929775,-32.111378,4.952547606,0.1139445149,,180.0140512,9.343335477e-07,-3.530403489e-06,-2.788455999e-07
58.4167,2.696590546,-0.06383925999,-32.11137776,4.952547699,0.1139441599,,180.0140512,9.244858432e-07,-3.548106411e-06,-2.81682791e-07
58.5167,2.696590731,-0.06383899298,-32.1113788,4.952547793,0.1139438051,,180.0140512,9.2427245e-07,-3.553149814e-06,-2.808767502e-07
58.6167,2.696590611,-0.06383870058,-32.11137734,4.952547886,0.1139434499,,180.0140511,9.363898914e-07,-3.544841484e-06,-2.798708593e-07
58.7167,2.696590783,-0.06383844839,-32.11137843,4.952547981,0.1139430923,,180.0140511,9.399417004e-07,-3.543779917e-06,-2.803285362e-07
58.8167,2.696590788,-0.06383842935,-32.11137771,4.952548075,0.1139427375,,180.0140511,9.338186515e-07,-3.544275977e-06,-2.813025412e-07
58.9167,2.696590897,-0.06383814191,-32.1113787,4.952548169,0.1139423829,,180.014051,9.371410004e-07,-3.544450981e-06,-2.801002983e-07
59.0167,2.696590923,-0.06383781947,-32.11137865,4.952548263,0.1139420279,,180.014051,9.387781144e-07,-3.562354702e-06,-2.797411983e-07
59.1167,2.696590908,-0.06383761353,-32.1113776,4.952548357,0.1139416708,,180.014051,9.378848968e-07,-3.557920048e-06,-2.806098004e-07
59.2167,2.696591131,-0.06383740637,-32.11137934,4.952548451,0.1139413156,,180.014051,9.47785212e-07,-3.5982529e-06,-2.841413191e-07
59.3167,2.696591095,-0.06383732276,-32.11137839,4.952548546,0.1139409595,,180.0140509,9.337037389e-07,-3.537319534e-06,-2.798248869e-07
59.4167,2.696591191,-0.06383722392,-32.11137881,4.952548639,0.113940606,,180.0140509,9.318020939e-07,-3.558384618e-06,-2.805312307e-07
59.5167,2.696591052,-0.06383700039,-32.11137812,4.952548733,0.1139402522,,180.0140509,9.452631214e-07,-3.544286508e-06,-2.802171535e-07
59.6167,2.69659127,-0.06383674453,-32.1113781,4.952548827,0.113939898,,180.0140509,9.345795858e-07,-3.542035592e-06,-2.798311522e-07
59.7167,2.696591218,-0.06383669755,-32.11137835,4.95254892,0.113939544,,180.0140508,9.411832147e-07,-3.546720873e-06,-2.819827121e-07
59.8167,2.696591389,-0.06383637327,-32.11137896,4.952549013,0.1139391894,,180.0140508,9.379066165e-07,-3.546771388e-06,-2.799430027e-07
59.9167,2.696591265,-0.06383613797,-32.11137811,4.952549107,0.1139388346,,180.0140508,9.384955054e-07,-3.543167354e-06,-2.798827297e-07
60.0333,2.696591398,-0.06383587064,-32.11137763,4.952549201,0.1139384802,,180.0140507,9.406693076e-07,-3.54182e-06,-2.788973507e-07
60.1167,2.696591454,-0.06383586418,-32.11137855,4.952549295,0.1139381232,,180.0140507,9.474238609e-07,-3.542664366e-06,-2.817367526e-07
60.2167,2.696591564,-0.06383551452,-32.11137824,4.952549389,0.1139377684,,180.0140507,9.45930363e-07,-3.539952e-06,-2.787472442e-07
60.3167,2.696591546,-0.06383553931,-32.11137837,4.952549483,0.1139374149,,180.0140507,9.416670831e-07,-3.540631649e-06,-2.809582397e-07
60.4167,2.69659157,-0.06383500936,-32.11137748,4.952549576,0.1139370607,,180.0140506,9.444500145e-07,-3.52593523e-06,-2.774410672e-07
60.5167,2.696591629,-0.06383494264,-32.11137786,4.95254967,0.1139367063,,180.0140506,9.452463079e-07,-3.550910643e-06,-2.80454436e-07
60.6167,2.696591759,-0.06383475859,-32.11137833,4.952549764,0.1139363517,,180.0140506,9.540351719e-07,-3.53516401e-06,-2.795783198e-07
60.7167,2.696591793,-0.06383466728,-32.11137846,4.952549857,0.1139359975,,180.0140505,9.476466184e-07,-3.540101941e-06,-2.804425091e-07
60.8167,2.696591919,-0.06383411436,-32.11137823,4.952549952,0.1139356414,,180.0140505,9.486687147e-07,-3.549046829e-06,-2.795528684e-07
60.9167,2.696591991,-0.06383407154,-32.11137816,4.952550046,0.1139352872,,180.0140505,9.489977607e-07,-3.550578363e-06,-2.788472572e-07
61.0167,2.696592013,-0.06383390301,-32.1113777,4.95255014,0.1139349308,,180.0140505,9.477843726e-07,-3.53410913e-06,-2.797737785e-07
61.1167,2.696592182,-0.06383373596,-32.11137882,4.952550234,0.1139345753,,180.0140504,9.348910094e-07,-3.564352946e-06,-2.814530071e-07
61.2167,2.696591998,-0.06383371426,-32.11137768,4.952550328,0.1139342219,,180.0140504,9.322018591e-07,-3.545921082e-06,-2.807908094e-07
61.3167,2.696592113,-0.06383340481,-32.11137801,4.952550405,0.1139339274,,180.0140504,9.394912171e-07,-3.524021707e-06,-2.786229516e-07
61.4167,2.696592105,-0.06383319197,-32.11137739,4.952550514,0.1139335132,,180.0140503,9.375485035e-07,-3.539729287e-06,-2.798810699e-07
61.5167,2.696592379,-0.06383298674,-32.11137869,4.952550608,0.1139331603,,180.0140503,9.235900035e-07,-3.524633674e-06,-2.784066752e-07
61.6167,2.696592254,-0.06383286009,-32.11137749,4.952550702,0.1139328046,,180.0140503,9.395458105e-07,-3.553602243e-06,-2.817432851e-07
61.7167,2.696592417,-0.06383249766,-32.11137779,4.952550796,0.1139324489,,180.0140503,9.328499072e-07,-3.551241389e-06,-2.79555531e-07
61.8167,2.696592315,-0.06383238252,-32.11137738,4.95255089,0.1139320957,,180.0140502,9.241359024e-07,-3.51629331e-06,-2.780895519e-07
61.9167,2.696592504,-0.06383214919,-32.11137802,4.952550983,0.1139317428,,180.0140502,9.247497452e-07,-3.510447198e-06,-2.776748216e-07
62.0167,2.696592504,-0.06383209491,-32.11137787,4.952551076,0.1139313902,,180.0140502,9.296243641e-07,-3.527503362e-06,-2.799571039e-07
62.1167,2.696592612,-0.06383178717,-32.11137857,4.952551169,0.1139310368,,180.0140502,9.265373211e-07,-3.529658634e-06,-2.789805978e-07
62.2167,2.696592704,-0.06383165193,-32.11137862,4.952551263,0.1139306837,,180.0140501,9.309185387e-07,-3.559331378e-06,-2.804208208e-07
62.3167,2.696592478,-0.06383141658,-32.11137687,4.952551356,0.1139303305,,180.0140501,9.324871027e-07,-3.538266982e-06,-2.796945615e-07
62.4167,2.696592777,-0.06383115459,-32.11137813,4.95255145,0.1139299769,,180.0140501,9.26395409e-07,-3.528306295e-06,-2.788569586e-07
62.5167,2.696592765,-0.06383114701,-32.11137863,4.952551543,0.113929624,,180.01405,9.307596864e-07,-3.535176458e-06,-2.806002734e-07
62.6167,2.696592911,-0.0638307527,-32.11137855,4.952551637,0.1139292683,,180.01405,9.339766187e-07,-3.566223334e-06,-2.812516541e-07
62.7083,2.696592784,-0.0638305758,-32.11137815,4.952551731,0.1139289138,,180.01405,9.261803004e-07,-3.528930661e-06,-2.788818838e-07
62.8083,2.696592886,-0.06383057848,-32.11137791,4.952551816,0.1139285906,,180.01405,9.224294694e-07,-3.534183524e-06,-2.8019633e-07
62.9167,2.696592963,-0.06383028858,-32.11137816,4.952551917,0.1139282079,,180.0140499,9.273743678e-07,-3.520117468e-06,-2.792518067e-07
63.0167,2.696593053,-0.06383002875,-32.1113783,4.952551995,0.1139279135,,180.0140499,9.305940085e-07,-3.537369528e-06,-2.795829419e-07
63.1167,2.696593364,-0.06382891968,-32.11137882,4.952552102,0.1139275192,,180.0140499,8.411879391e-07,-2.963953374e-06,-2.345319487e-07
63.2167,2.696593434,-0.06382882805,-32.11137879,4.952552178,0.1139272601,,180.0140499,6.463052678e-07,-2.179426727e-06,-1.722264029e-07
63.3167,2.696593336,-0.06382910881,-32.11137851,4.952552235,0.1139270717,,180.0140498,4.91722974e-07,-1.585613367e-06,-1.278349342e-07
63.4167,2.696593378,-0.06382902014,-32.11137846,4.952552276,0.1139269362,,180.0140498,3.20726437e-07,-1.124320442e-06,-9.058419082e-08
63.5167,2.696593361,-0.06382892526,-32.11137841,4.952552299,0.1139268527,,180.0140498,2.446901271e-07,-8.501656261e-07,-6.677004087e-08
63.6167,2.696593336,-0.06382908891,-32.11137864,4.952552324,0.1139267688,,180.0140498,1.806985193e-07,-5.75598141e-07,-4.557779656e-08
63.7167,2.696593362,-0.06382905267,-32.11137863,4.952552337,0.1139267183,,180.0140498,7.698227666e-08,-4.107785241e-07,-3.387888056e-08
63.8167,2.696593326,-0.06382913536,-32.1113783,4.952552343,0.1139266835,,180.0140498,2.393360472e-08,-2.836684179e-07,-2.274621825e-08
63.9167,2.696593278,-0.06382917503,-32.11137823,4.952552343,0.1139266575,,180.0140498,-9.879089103e-09,-2.488876417e-07,-1.968943237e-08
64.0167,2.696593271,-0.06382914292,-32.11137848,4.952552344,0.113926637,,180.0140498,2.404464248e-08,-1.614890669e-07,-1.29939076e-08
64.1167,2.696593296,-0.06382914773,-32.11137838,4.952552345,0.1139266266,,180.0140498,-2.016886059e-09,-7.65388848e-08,-6.113964526e-09
64.2167,2.696593307,-0.06382916898,-32.11137856,4.952552344,0.1139266192,,180.0140498,-9.919056143e-09,-7.091657367e-08,-5.760948449e-09
64.3333,2.696593265,-0.06382915726,-32.1113782,4.952552343,0.1139266121,,180.0140498,-1.256157537e-08,-7.116793173e-08,-5.583153949e-09
64.4167,2.696593271,-0.06382915117,-32.11137824,4.952552341,0.113926606,,180.0140498,-2.094751496e-08,-5.537637525e-08,-4.360227462e-09
64.5167,2.696593263,-0.06382915642,-32.11137844,4.952552339,0.1139266005,,180.0140498,-2.326369287e-08,-5.354179387e-08,-4.313185631e-09
64.6167,2.696593292,-0.06382915497,-32.11137856,4.952552337,0.1139265951,,180.0140498,-9.433163624e-09,-5.492358754e-08,-4.397524199e-09
64.7167,2.696593317,-0.06382932069,-32.1113785,4.952552339,0.1139265948,,180.0140498,2.586254252e-08,3.772081199e-09,-6.227839479e-10
64.8167,2.696593197,-0.06382903194,-32.11137787,4.95255234,0.1139265919,,180.0140498,1.851139759e-08,-8.013997154e-09,-5.498708756e-10
64.9167,2.696593303,-0.06382918495,-32.11137816,4.952552342,0.113926591,,180.0140498,2.487840907e-09,-4.178247223e-08,-3.014255365e-09
65.0167,2.696593298,-0.0638292426,-32.11137823,4.952552344,0.1139265903,,180.0140498,9.785779395e-09,-1.480739723e-08,-2.081682489e-10
65.1167,2.696593269,-0.06382912302,-32.11137845,4.952552344,0.1139265892,,180.0140498,1.151390721e-08,1.576391345e-08,1.096649783e-09
65.2167,2.696593281,-0.06382911777,-32.11137854,4.952552344,0.1139265886,,180.0140498,8.303049116e-09,1.212294073e-08,5.931152437e-10
65.3167,2.696593264,-0.06382909507,-32.11137833,4.952552345,0.1139265879,,180.0140498,6.011860889e-09,8.310851636e-09,5.05994611e-10
65.4167,2.696593239,-0.06382905659,-32.11137815,4.952552345,0.1139265875,,180.0140498,2.692447997e-09,-1.588718187e-09,-5.656986524e-11
65.5167,2.696593312,-0.06382919708,-32.1113784,4.952552346,0.1139265874,,180.0140498,-7.638409761e-09,-3.787894964e-08,-2.626408159e-09
65.6167,2.696593311,-0.06382931632,-32.11137829,4.952552346,0.1139265876,,180.0140498,7.400275801e-09,4.176427395e-09,-5.713241926e-10
65.7167,2.696593284,-0.06382912862,-32.1113785,4.952552346,0.113926587,,180.0140498,8.510092587e-09,1.66382793e-08,1.074068122e-09
65.8167,2.696593296,-0.06382910137,-32.11137854,4.952552346,0.1139265863,,180.0140498,1.702483798e-09,6.466008892e-09,-2.096319869e-10
65.9167,2.696593256,-0.06382909329,-32.11137826,4.952552346,0.1139265861,,180.0140498,1.295627478e-09,6.880099988e-09,-8.304633866e-12
66.0167,2.696593297,-0.06382908529,-32.11137854,4.952552347,0.1139265859,,180.0140498,-2.524456186e-09,-4.177380505e-09,-1.397526797e-09
66.1167,2.696593325,-0.06382921942,-32.11137833,4.952552347,0.1139265861,,180.0140498,-6.63254765e-09,-3.085764454e-08,-2.303268223e-09
66.2167,2.696593347,-0.06382926256,-32.1113785,4.952552347,0.1139265863,,180.0140498,-1.434754151e-09,-1.840618628e-08,-1.458881901e-09
66.3167,2.696593268,-0.06382912338,-32.1113783,4.952552347,0.1139265856,,180.0140498,8.562326073e-09,1.926406078e-08,1.449815916e-09
66.4167,2.696593292,-0.06382909654,-32.11137852,4.952552347,0.1139265849,,180.0140498,1.122260091e-10,5.574940147e-09,-2.801212446e-10
66.5167,2.696593222,-0.06382900455,-32.11137792,4.952552347,0.113926585,,180.0140498,-3.901060313e-09,-1.872879571e-08,-3.932967453e-10
66.6167,2.69659327,-0.06382913847,-32.11137824,4.952552348,0.1139265859,,180.0140498,1.949029672e-08,1.891443753e-08,1.529278809e-09
66.7167,2.696593258,-0.0638291175,-32.1113781,4.95255235,0.1139265879,,180.0140498,2.415815598e-08,2.920505106e-08,2.50465329e-09
66.8167,2.69659326,-0.0638291427,-32.11137809,4.952552352,0.1139265914,,180.0140498,3.373319741e-08,3.741684584e-08,3.097963144e-09
66.9167,2.696593301,-0.06382916415,-32.11137828,4.952552354,0.1139265901,,180.0140498,-1.385337504e-09,-3.690307304e-08,-2.804909947e-09
67.0167,2.696593308,-0.06382924322,-32.11137822,4.952552355,0.1139265896,,180.0140498,7.613401316e-09,-1.010123099e-08,-6.727505879e-10
67.1167,2.696593305,-0.0638292877,-32.11137827,4.952552355,0.1139265889,,180.0140498,1.088462566e-08,9.305879605e-09,-1.978439082e-10
67.2167,2.696593361,-0.06382929923,-32.1113788,4.952552356,0.1139265883,,180.0140498,9.246904429e-09,6.747635753e-09,-5.59444888e-10
67.3167,2.696593256,-0.06382910217,-32.11137826,4.952552356,0.1139265876,,180.0140498,1.392752585e-08,2.365762945e-08,1.570629641e-09
67.4167,2.696593277,-0.06382908866,-32.11137849,4.952552357,0.1139265871,,180.0140498,1.194650052e-08,1.919986421e-08,1.269450087e-09
67.5167,2.696593263,-0.06382908587,-32.11137826,4.952552357,0.1139265863,,180.0140498,1.324522999e-08,1.764964934e-08,1.202746076e-09
67.6083,2.696593211,-0.06382897443,-32.11137789,4.952552358,0.1139265855,,180.0140498,8.97934649e-10,-1.878910618e-08,-4.647159578e-10
67.7167,2.696593302,-0.06382918769,-32.11137823,4.952552358,0.1139265855,,180.0140498,-3.104489495e-10,-2.737163954e-08,-1.796569003e-09
67.8167,2.696593321,-0.06382929918,-32.11137847,4.952552359,0.1139265853,,180.0140498,1.29900355e-08,1.093245753e-08,-9.607253622e-11
67.9167,2.696593259,-0.06382909855,-32.11137819,4.952552359,0.1139265841,,180.0140498,1.375406368e-08,2.250167641e-08,1.41805039e-09
68.0167,2.696593266,-0.06382904682,-32.11137843,4.95255236,0.1139265833,,180.0140498,6.39868242e-09,6.251880669e-09,3.16737018e-10
68.1167,2.696593229,-0.06382898096,-32.11137803,4.95255236,0.1139265826,,180.0140498,6.492243148e-10,-1.632328362e-08,-3.062548965e-10
68.2167,2.696593329,-0.06382919251,-32.11137841,4.952552361,0.1139265829,,180.0140498,7.271119292e-10,-2.571473046e-08,-1.778427853e-09
68.3167,2.696593326,-0.06382923583,-32.11137841,4.952552362,0.1139265825,,180.0140498,1.078950208e-08,-4.814153955e-09,3.13846135e-10
68.4167,2.696593288,-0.06382908432,-32.11137848,4.952552362,0.113926581,,180.0140498,1.097114636e-08,1.714888775e-08,9.897177684e-10
68.5167,2.696593248,-0.06382904083,-32.11137811,4.952552363,0.1139265803,,180.0140498,2.350993615e-09,1.420259859e-10,-5.811107686e-10
68.6167,2.696593321,-0.06382918269,-32.11137829,4.952552363,0.1139265805,,180.0140498,-1.940242032e-09,-2.791394038e-08,-2.072580221e-09
68.7167,2.696593337,-0.06382923183,-32.11137851,4.952552363,0.1139265812,,180.0140498,-8.372740237e-09,-1.48202208e-08,-8.808535806e-10
68.8167,2.696593318,-0.06382923779,-32.11137838,4.952552363,0.1139265813,,180.0140498,5.745414721e-09,-3.692103957e-09,4.704495595e-10
68.9167,2.696593276,-0.06382910094,-32.11137851,4.952552363,0.1139265804,,180.0140498,1.244122568e-08,2.348740792e-08,1.488771805e-09
69.0167,2.696593335,-0.06382893051,-32.11137847,4.952552363,0.1139265798,,180.0140498,-1.267787687e-08,4.132631297e-08,2.55248078e-09
69.1167,2.696593269,-0.06382906232,-32.11137842,4.952552362,0.1139265805,,180.0140498,-5.872890995e-09,2.270039962e-09,-6.918712328e-10
69.2167,2.696593295,-0.0638291815,-32.11137823,4.952552362,0.1139265808,,180.0140498,-5.518649986e-09,-2.860013782e-08,-2.04840854e-09
69.3167,2.696593324,-0.06382918921,-32.11137839,4.952552363,0.1139265806,,180.0140498,-2.308672399e-09,-2.651034839e-08,-1.816414352e-09
69.4167,2.696593336,-0.0638292089,-32.11137857,4.952552363,0.1139265804,,180.0140498,6.554433777e-10,-2.122630161e-08,-1.56855931e-09
69.5167,2.696593326,-0.06382923248,-32.11137847,4.952552362,0.1139265814,,180.0140498,-1.260632379e-08,-1.402637623e-08,-5.356009337e-10
69.6167,2.69659325,-0.06382911376,-32.11137821,4.952552362,0.1139265811,,180.0140498,1.19462807e-08,2.888737824e-08,2.152844807e-09
69.7167,2.696593267,-0.06382907732,-32.11137834,4.952552362,0.1139265803,,180.0140498,7.532932539e-09,1.513124571e-08,5.346026244e-10
69.8167,2.696593245,-0.0638289832,-32.11137808,4.952552363,0.11392658,,180.0140498,-1.17556342e-09,-1.446370283e-08,-1.974891356e-10
69.9167,2.696593341,-0.06382906442,-32.11137833,4.952552363,0.11392658,,180.0140498,-1.263519708e-08,5.600909971e-09,-2.299100623e-10
70.0167,2.696593254,-0.063829231,-32.11137789,4.952552362,0.1139265814,,180.0140498,-1.836770924e-09,-1.561569034e-09,9.221257804e-10
70.1167,2.696593232,-0.06382909867,-32.11137809,4.952552362,0.1139265811,,180.0140498,1.155007026e-08,2.647601781e-08,2.13378428e-09
70.2167,2.696593259,-0.06382907968,-32.11137826,4.952552362,0.1139265806,,180.0140498,9.658530952e-09,2.026997227e-08,1.43066934e-09
70.3167,2.696593256,-0.06382904089,-32.11137827,4.952552362,0.1139265799,,180.0140498,3.50521545e-09,7.628077461e-09,4.45683506e-10
70.4167,2.696593413,-0.06382899969,-32.11137877,4.952552363,0.1139265799,,180.0140498,-7.154463805e-09,-1.388233206e-08,-1.893868627e-10
70.5167,2.696593322,-0.06382919497,-32.11137856,4.952552361,0.113926581,,180.0140498,-1.774134633e-08,-2.615908571e-08,-1.908882864e-09
70.6167,2.696593337,-0.06382922035,-32.11137857,4.952552361,0.1139265818,,180.0140498,1.453254336e-09,-1.643304143e-08,-7.649114969e-10
70.7167,2.696593227,-0.06382909006,-32.11137783,4.952552361,0.1139265808,,180.0140498,1.43479456e-08,2.67174271e-08,2.150934523e-09
70.8167,2.696593273,-0.06382907885,-32.1113784,4.952552362,0.11392658,,180.0140498,8.401704291e-09,1.521948676e-08,5.256825114e-10
70.9167,2.696593263,-0.06382886571,-32.11137801,4.952552362,0.1139265798,,180.0140498,-9.692087789e-09,2.039008505e-08,2.370599086e-09
71.0167,2.696593252,-0.06382908103,-32.11137834,4.952552361,0.1139265806,,180.0140498,5.941509477e-10,1.673108472e-08,7.342724754e-10
71.1333,2.696593281,-0.06382916904,-32.11137804,4.952552361,0.1139265808,,180.0140498,-4.652509085e-09,-3.061913351e-08,-2.105760619e-09
71.2167,2.696593278,-0.06382919718,-32.11137796,4.952552362,0.1139265809,,180.0140498,3.690850506e-09,-1.637003913e-08,-5.106300826e-10
71.3167,2.696593305,-0.06382922699,-32.11137838,4.952552362,0.1139265805,,180.0140498,7.363369438e-09,-5.175831049e-09,3.944237977e-10
71.4167,2.696593203,-0.0638290697,-32.11137802,4.952552361,0.1139265804,,180.0140498,-8.677944161e-09,1.93243435e-08,1.65931191e-09
71.5167,2.6965933,-0.0638290654,-32.1113787,4.952552361,0.1139265804,,180.0140498,-1.360730993e-09,2.640988348e-09,-8.421255233e-10
71.6167,2.696593358,-0.06382919387,-32.11137872,4.952552361,0.1139265807,,180.0140498,-4.042079501e-09,-2.780354451e-08,-2.244476595e-09
71.7167,2.696593307,-0.063829201,-32.11137828,4.952552362,0.1139265805,,180.0140498,-1.572586973e-11,-2.118799669e-08,-1.416775737e-09
71.8167,2.696593332,-0.06382922482,-32.11137849,4.952552361,0.1139265809,,180.0140498,-1.042607596e-08,-1.493797523e-08,-8.789028141e-10
71.9167,2.696593348,-0.06382925686,-32.11137865,4.952552361,0.1139265813,,180.0140498,2.774499599e-09,-8.630357709e-09,-7.367329173e-10
72.0167,2.696593353,-0.06382929458,-32.11137866,4.952552361,0.1139265807,,180.0140498,7.804590424e-09,1.005544617e-08,-2.139750854e-10
72.1167,2.696593356,-0.06382932372,-32.11137857,4.952552361,0.1139265808,,180.0140498,-3.72898603e-10,2.429409869e-08,4.460785126e-10
72.2167,2.696593238,-0.06382907231,-32.11137811,4.952552361,0.11392658,,180.0140498,3.656044807e-09,1.573225431e-08,6.900166288e-10
72.3167,2.696593313,-0.06382918567,-32.11137836,4.952552361,0.1139265802,,180.0140498,-4.712727518e-09,-2.680821175e-08,-2.0135738e-09
72.4167,2.69659329,-0.06382918016,-32.11137826,4.95255236,0.1139265808,,180.0140498,-1.163093808e-08,-2.694143057e-08,-1.80788695e-09
72.5167,2.696593334,-0.06382925427,-32.11137845,4.952552361,0.1139265814,,180.0140498,5.07358429e-09,-7.856115063e-09,-5.778256885e-10
72.6083,2.696593232,-0.06382907021,-32.11137799,4.952552361,0.1139265801,,180.0140498,9.661979715e-09,1.908015707e-08,1.384674773e-09
72.7167,2.696593328,-0.06382892593,-32.11137843,4.952552361,0.1139265801,,180.0140498,-8.115725658e-09,4.877407836e-08,3.529399358e-09
72.8167,2.69659323,-0.06382904071,-32.11137804,4.95255236,0.1139265803,,180.0140498,-3.913658994e-10,9.374153053e-09,7.088497767e-10
72.9167,2.69659328,-0.06382916616,-32.11137803,4.95255236,0.1139265804,,180.0140498,-5.531879311e-09,-2.940606613e-08,-2.008497035e-09
73.0167,2.696593274,-0.06382917605,-32.11137794,4.952552361,0.1139265802,,180.0140498,-1.388688693e-09,-2.507821928e-08,-1.506381011e-09
73.1167,2.696593286,-0.06382919004,-32.11137813,4.95255236,0.1139265809,,180.0140498,-1.051513489e-08,-2.326532718e-08,-1.56056741e-09
73.2167,2.696593293,-0.06382920664,-32.11137809,4.95255236,0.1139265812,,180.0140498,2.113384718e-09,-1.650631953e-08,-6.079711315e-10
73.3167,2.696593266,-0.06382910141,-32.11137832,4.95255236,0.1139265804,,180.0140498,1.334772528e-08,2.641695124e-08,1.968868182e-09
73.4167,2.696593303,-0.06382936818,-32.11137833,4.95255236,0.1139265807,,180.0140498,-1.420892955e-08,3.756348662e-08,7.203030847e-10
73.5167,2.696593237,-0.06382910019,-32.11137809,4.952552359,0.1139265811,,180.0140498,8.588951866e-09,2.637830666e-08,1.867978299e-09
73.6167,2.696593255,-0.06382907892,-32.11137829,4.95255236,0.1139265807,,180.0140498,1.07902997e-08,1.978004348e-08,1.450287676e-09
73.7167,2.696593296,-0.06382908833,-32.11137853,4.95255236,0.1139265802,,180.0140498,7.643548304e-09,1.665222886e-08,5.34834296e-10
73.8167,2.696593279,-0.06382936534,-32.11137825,4.95255236,0.1139265808,,180.0140498,-8.252590458e-09,3.776174608e-08,7.911668912e-10
73.9167,2.696593222,-0.06382907195,-32.111378,4.952552359,0.1139265803,,180.0140498,1.555363303e-09,1.647749545e-08,8.033377438e-10
74.0167,2.696593297,-0.06382917056,-32.11137825,4.95255236,0.1139265806,,180.0140498,-4.722483064e-09,-2.974323939e-08,-2.086041443e-09
74.1167,2.696593303,-0.06382920438,-32.11137812,4.95255236,0.1139265807,,180.0140498,2.582316955e-09,-1.604973398e-08,-6.205950725e-10
74.2167,2.696593249,-0.06382922288,-32.11137796,4.95255236,0.1139265812,,180.0140498,-9.853634793e-09,-9.149766213e-09,2.707292465e-11
74.3333,2.696593362,-0.06382931065,-32.11137881,4.952552359,0.1139265811,,180.0140498,8.079099938e-09,1.308869914e-08,-2.527959151e-12
74.4167,2.69659328,-0.06382908461,-32.1113785,4.952552359,0.1139265803,,180.0140498,9.038671628e-09,1.959290204e-08,1.24024459e-09
74.5167,2.696593307,-0.06382879495,-32.11137829,4.95255236,0.1139265796,,180.0140498,-7.005344584e-09,-2.038833758e-10,1.865039625e-09
74.6167,2.696593304,-0.06382918307,-32.11137835,4.952552359,0.1139265807,,180.0140498,-1.074279891e-08,-2.702611339e-08,-1.945348821e-09
74.7333,2.696593324,-0.06382921272,-32.11137835,4.952552359,0.1139265811,,180.0140498,-9.730872112e-10,-1.859129047e-08,-1.455293013e-09
74.8167,2.696593359,-0.06382930617,-32.11137875,4.95255236,0.1139265807,,180.0140498,9.854919016e-09,1.224810307e-08,-5.689564764e-11
74.9167,2.696593337,-0.06382930606,-32.11137843,4.952552359,0.1139265809,,180.0140498,-5.989344286e-09,2.413958981e-08,1.231699599e-09
75.0167,2.696593232,-0.0638290775,-32.11137806,4.952552359,0.1139265805,,180.0140498,5.432599412e-09,2.08606249e-08,1.549553967e-09
75.1167,2.696593257,-0.06382905095,-32.11137829,4.952552359,0.1139265802,,180.0140498,3.162606894e-10,2.278604662e-09,-4.944332688e-10
75.2167,2.696593299,-0.06382918293,-32.11137814,4.952552359,0.1139265805,,180.0140498,-3.381273816e-09,-2.582623924e-08,-1.899541589e-09
75.3167,2.696593328,-0.06382922894,-32.11137848,4.952552359,0.1139265814,,180.0140498,-9.684250409e-09,-1.20021381e-08,-6.876544492e-10
75.4167,2.696593328,-0.06382930064,-32.11137844,4.952552358,0.1139265814,,180.0140498,7.475922578e-09,1.502219959e-08,2.00319578e-10
75.5167,2.696593235,-0.06382907306,-32.11137811,4.952552358,0.1139265806,,180.0140498,1.000832987e-08,2.133393956e-08,1.599388813e-09
75.6167,2.696593248,-0.0638290417,-32.11137812,4.952552359,0.11392658,,180.0140498,4.728067898e-09,8.597812291e-09,5.741637978e-10
75.7167,2.696593332,-0.06382894642,-32.11137864,4.952552359,0.1139265799,,180.0140498,-8.582704597e-09,3.633714579e-08,2.310051942e-09
75.8167,2.696593242,-0.06382902536,-32.1113782,4.952552358,0.1139265804,,180.0140498,-1.121639644e-08,-1.610830704e-08,-5.204166582e-10
75.9167,2.696593301,-0.06382924712,-32.1113782,4.952552358,0.1139265812,,180.0140498,2.7883001e-09,-1.301234357e-08,-9.644414112e-11
76.0167,2.696593258,-0.06382911962,-32.1113782,4.952552358,0.1139265806,,180.0140498,9.041333455e-09,1.73692694e-08,1.389494052e-09
76.1167,2.696593305,-0.063829113,-32.11137857,4.952552359,0.1139265799,,180.0140498,3.726950324e-09,7.939400485e-09,-1.569728761e-11
76.2167,2.696593251,-0.06382886242,-32.1113779,4.952552359,0.1139265799,,180.0140498,-1.182124789e-08,2.215616611e-08,2.52782564e-09
76.3167,2.696593272,-0.06382910183,-32.11137853,4.952552357,0.1139265806,,180.0140498,-8.290937394e-09,6.227797043e-09,-9.3796522e-11
76.4167,2.696593311,-0.0638292217,-32.11137828,4.952552357,0.1139265815,,180.0140498,-4.249000533e-09,-2.947243326e-08,-1.59211398e-09
76.5167,2.696593334,-0.06382931603,-32.11137851,4.952552358,0.1139265814,,180.0140498,7.398765619e-09,2.370218728e-09,-7.396859322e-10
76.6167,2.69659329,-0.06382912534,-32.11137844,4.952552358,0.1139265807,,180.0140498,9.455325903e-09,1.581667992e-08,1.005276793e-09
76.7167,2.696593274,-0.06382910921,-32.11137828,4.952552358,0.11392658,,180.0140498,6.27788432e-09,1.112254165e-08,5.674831879e-10
76.8167,2.696593253,-0.06382893149,-32.11137791,4.952552358,0.1139265797,,180.0140498,-9.567762218e-09,3.10393158e-08,3.129086209e-09
76.9167,2.696593276,-0.06382910366,-32.11137845,4.952552357,0.1139265803,,180.0140498,-4.482787083e-09,6.70737652e-09,-7.920554294e-11
77.0167,2.696593326,-0.06382921934,-32.1113784,4.952552357,0.1139265808,,180.0140498,-6.319376514e-09,-3.295539288e-08,-2.424962992e-09
77.1167,2.69659335,-0.06382926053,-32.11137864,4.952552358,0.1139265808,,180.0140498,-1.044494669e-09,-2.159130133e-08,-1.67458363e-09
77.2167,2.696593248,-0.06382912163,-32.11137802,4.952552358,0.1139265804,,180.0140498,9.670578243e-09,1.884684894e-08,1.513592215e-09
77.3167,2.696593266,-0.06382912444,-32.11137812,4.952552357,0.1139265804,,180.0140498,-8.246375113e-09,2.778726147e-08,2.986809576e-09
77.4167,2.696593252,-0.06382911244,-32.11137822,4.952552357,0.1139265808,,180.0140498,3.385646082e-09,1.355997703e-08,8.922405437e-10
77.5083,2.696593229,-0.06382904987,-32.11137796,4.952552357,0.1139265803,,180.0140498,1.514809585e-10,-2.267045299e-09,-4.937810069e-11
77.6167,2.696593215,-0.06382899922,-32.11137776,4.952552357,0.1139265803,,180.0140498,-3.017370767e-09,-2.104844773e-08,-5.540636333e-10
77.7167,2.696593345,-0.06382925955,-32.11137848,4.952552358,0.1139265807,,180.0140498,6.722544164e-10,-2.081461186e-08,-1.572020029e-09
77.8167,2.696593306,-0.0638292597,-32.11137826,4.952552357,0.1139265812,,180.0140498,-8.591046055e-09,-8.585967002e-09,3.504942519e-10
77.9167,2.696593351,-0.06382932167,-32.11137866,4.952552357,0.1139265813,,180.0140498,3.950423453e-09,2.540226629e-09,-7.714700997e-10
78.0167,2.69659327,-0.06382912042,-32.1113783,4.952552357,0.1139265806,,180.0140498,8.524186753e-09,1.57090783e-08,1.084385955e-09
78.1167,2.696593287,-0.0638290956,-32.11137844,4.952552357,0.11392658,,180.0140498,4.054682523e-09,7.582961989e-09,3.862679242e-10
78.2167,2.696593378,-0.06382889854,-32.11137872,4.952552357,0.1139265798,,180.0140498,-5.353478911e-09,8.825364192e-09,2.348872272e-09
78.3167,2.696593277,-0.06382910476,-32.11137855,4.952552356,0.1139265803,,180.0140498,-5.032183998e-09,6.627516701e-09,-6.289986827e-11
78.4167,2.696593324,-0.06382925542,-32.11137842,4.952552357,0.1139265815,,180.0140498,2.210810424e-09,-1.237585665e-08,-2.176862192e-10
78.5167,2.696593315,-0.06382913865,-32.11137868,4.952552357,0.1139265806,,180.0140498,9.06192747e-09,1.841276135e-08,1.15319821e-09
78.6167,2.696593273,-0.06382911029,-32.11137833,4.952552357,0.11392658,,180.0140498,5.229388849e-09,1.149203619e-08,5.831553866e-10
78.7167,2.696593317,-0.06382893786,-32.11137825,4.952552357,0.11392658,,180.0140498,-1.406548979e-08,3.897735853e-08,3.611871662e-09
78.8167,2.696593269,-0.06382909595,-32.11137825,4.952552356,0.1139265802,,180.0140498,-1.793030245e-09,9.031983637e-09,5.59201623e-10
78.9167,2.696593344,-0.06382922426,-32.11137852,4.952552356,0.1139265809,,180.0140498,-6.805817537e-09,-3.25648456e-08,-2.466618835e-09
79.0167,2.696593371,-0.0638292661,-32.11137877,4.952552356,0.1139265808,,180.0140498,-2.242913935e-09,-2.118701843e-08,-1.749803642e-09
79.1167,2.696593265,-0.0638291246,-32.11137818,4.952552357,0.1139265804,,180.0140498,1.300292207e-08,1.825973236e-08,1.426377946e-09
79.2167,2.696593333,-0.06382926507,-32.11137851,4.952552356,0.113926581,,180.0140498,-1.264997568e-08,-7.113989656e-09,5.326741229e-10
79.3167,2.696593269,-0.06382913013,-32.11137815,4.952552356,0.1139265812,,180.0140498,8.234229291e-09,2.02079246e-08,1.514378745e-09
79.4333,2.696593258,-0.06382910881,-32.11137822,4.952552356,0.1139265806,,180.0140498,5.784421753e-09,1.36196017e-08,1.04049241e-09
79.5167,2.696593312,-0.06382910386,-32.11137873,4.952552356,0.1139265801,,180.0140498,2.770832472e-09,4.142453642e-09,-4.19873959e-10
79.6167,2.696593341,-0.06382920034,-32.11137844,4.952552357,0.11392658,,180.0140498,-9.175666964e-09,-3.798206926e-08,-2.780432398e-09
79.7167,2.696593242,-0.06382904028,-32.1113782,4.952552355,0.1139265808,,180.0140498,-1.233004801e-08,-1.302075314e-08,-2.549504008e-11
79.8167,2.696593318,-0.06382925586,-32.11137834,4.952552355,0.1139265815,,180.0140498,-2.334862194e-09,-2.023090606e-08,-1.397182398e-09
79.9167,2.696593272,-0.06382912826,-32.11137832,4.952552355,0.1139265812,,180.0140498,1.142777137e-08,1.849542958e-08,1.402193699e-09
80.0167,2.696593288,-0.06382911425,-32.11137846,4.952552356,0.1139265805,,180.0140498,9.518865641e-09,1.29066834e-08,8.698701336e-10
80.1167,2.696593234,-0.06382914856,-32.11137802,4.952552356,0.1139265802,,180.0140498,-3.931501797e-09,3.229004931e-08,-2.315535175e-10
80.2167,2.696593268,-0.06382906466,-32.11137841,4.952552356,0.1139265801,,180.0140498,-3.431058917e-09,-1.322114238e-09,-1.481964591e-10
80.3167,2.696593285,-0.06382907855,-32.1113784,4.952552356,0.1139265798,,180.0140498,-3.104866065e-09,-6.771512114e-09,-1.46666523e-09
80.4167,2.696593321,-0.06382925612,-32.11137828,4.952552356,0.1139265806,,180.0140498,-1.870126826e-09,-1.992661904e-08,-1.409059893e-09
80.5167,2.696593259,-0.06382927295,-32.11137803,4.952552355,0.1139265816,,180.0140498,-1.45682167e-08,-3.168996479e-09,7.401004887e-10
80.6167,2.696593244,-0.06382912025,-32.11137819,4.952552354,0.1139265814,,180.0140498,5.680247736e-09,1.752460186e-08,1.462520784e-09
80.7167,2.696593278,-0.06382909571,-32.11137836,4.952552354,0.113926581,,180.0140498,6.269416023e-10,4.74189729e-09,-2.484560528e-10
80.8167,2.696593234,-0.06382900603,-32.11137795,4.952552354,0.113926581,,180.0140498,-6.94812882e-09,-2.047890695e-08,-5.566834804e-10
80.9167,2.696593316,-0.06382924918,-32.1113783,4.952552355,0.1139265817,,180.0140498,4.093167669e-09,-1.346920914e-08,-2.229927593e-10
81.0167,2.696593275,-0.06382912092,-32.11137834,4.952552355,0.1139265806,,180.0140498,5.491918869e-09,1.537963785e-08,1.013481056e-09
81.1167,2.696593301,-0.06382907195,-32.11137852,4.952552355,0.11392658,,180.0140498,-4.30125064e-09,-9.359897454e-09,-1.652998327e-09
81.2167,2.696593328,-0.06382925356,-32.11137834,4.952552355,0.113926581,,180.0140498,4.877000327e-09,-1.297735183e-08,-3.485312044e-10
81.3167,2.696593281,-0.06382914808,-32.11137846,4.952552355,0.1139265807,,180.0140498,-7.626615185e-11,2.525467962e-08,2.293005637e-09
81.4167,2.696593238,-0.06382910442,-32.11137803,4.952552355,0.1139265804,,180.0140498,2.358046872e-09,1.222317359e-08,7.867284241e-10
81.5167,2.696593233,-0.06382900082,-32.11137794,4.952552355,0.1139265801,,180.0140498,-7.140929298e-09,-2.366684638e-08,-8.889326272e-10
81.6167,2.696593374,-0.06382932835,-32.11137876,4.952552355,0.1139265808,,180.0140498,7.338182625e-09,3.795665513e-09,-6.845366791e-10
81.7167,2.69659329,-0.06382912505,-32.11137842,4.952552355,0.1139265801,,180.0140498,8.319511746e-09,1.588118053e-08,1.000818417e-09
81.8167,2.696593267,-0.06382916898,-32.11137829,4.952552355,0.1139265809,,180.0140498,-9.594959973e-09,3.807134435e-08,3.172909228e-09
81.9167,2.69659329,-0.06382912247,-32.11137857,4.952552353,0.113926581,,180.0140498,6.078834653e-10,1.48689355e-08,9.671419058e-10
82.0167,2.696593215,-0.06382905178,-32.11137772,4.952552353,0.1139265809,,180.0140498,-1.95616714e-09,4.049135785e-11,8.900444098e-11
82.1167,2.6965933,-0.06382921132,-32.11137821,4.952552354,0.1139265813,,180.0140498,-8.772032274e-09,-3.148645086e-08,-2.168536959e-09
82.2167,2.696593337,-0.06382925643,-32.11137837,4.952552354,0.1139265814,,180.0140498,-2.174474888e-09,-1.948627224e-08,-1.459067458e-09
82.3167,2.696593284,-0.06382912987,-32.11137837,4.952552354,0.1139265811,,180.0140498,9.183583277e-09,1.989463103e-08,1.415065335e-09
82.4167,2.696593279,-0.06382911492,-32.1113786,4.952552354,0.1139265805,,180.0140498,6.442712946e-09,1.299453365e-08,9.348882304e-10
82.5167,2.696593246,-0.06382908834,-32.11137808,4.952552354,0.1139265801,,180.0140498,1.913242137e-09,4.939737373e-09,-6.684797842e-11
82.6167,2.696593228,-0.06382900381,-32.11137796,4.952552354,0.1139265801,,180.0140498,-3.433136292e-09,-2.132006182e-08,-6.058155438e-10
82.7167,2.696593308,-0.06382921307,-32.11137825,4.952552355,0.1139265801,,180.0140498,-4.128695025e-09,-2.987443099e-08,-1.655714519e-09
82.8167,2.696593235,-0.0638290654,-32.11137819,4.952552354,0.1139265802,,180.0140498,-8.939698518e-09,9.172703416e-10,1.143762951e-10
82.9167,2.696593363,-0.06382926987,-32.11137875,4.952552354,0.1139265814,,180.0140498,-3.478355796e-09,-1.784519202e-08,-1.412334744e-09
83.0167,2.696593337,-0.06382931498,-32.11137851,4.952552354,0.1139265813,,180.0140498,3.126638821e-09,3.647479271e-09,-6.753649742e-10
83.1167,2.696593274,-0.06382912153,-32.11137835,4.952552353,0.1139265807,,180.0140498,6.639908144e-09,1.747147813e-08,1.214835768e-09
83.2167,2.696593267,-0.06382909201,-32.11137841,4.952552353,0.1139265803,,180.0140498,1.869267174e-09,9.071518169e-09,6.13860296e-10
83.3167,2.696593315,-0.0638290865,-32.11137875,4.952552354,0.1139265802,,180.0140498,-4.096939195e-09,-5.099281209e-09,-1.490781353e-09
83.4167,2.696593314,-0.0638292127,-32.11137831,4.952552354,0.1139265804,,180.0140498,-8.511568232e-09,-3.210509917e-08,-2.295446218e-09
83.5167,2.696593295,-0.06382924281,-32.11137817,4.952552354,0.1139265808,,180.0140498,1.515836228e-09,-1.228085921e-08,-2.09187302e-11
83.6167,2.696593245,-0.06382911628,-32.11137803,4.952552354,0.1139265803,,180.0140498,8.354982414e-09,1.912920108e-08,1.558271121e-09
83.7167,2.696593259,-0.06382913855,-32.11137812,4.952552354,0.1139265805,,180.0140498,-3.926830141e-09,2.987691069e-08,9.781131843e-10
83.8167,2.69659327,-0.06382912516,-32.1113783,4.952552353,0.1139265809,,180.0140498,3.852041431e-09,1.933375761e-08,1.389222644e-09
83.9167,2.696593254,-0.06382910679,-32.11137825,4.952552353,0.1139265804,,180.0140498,2.854347826e-09,1.308194863e-08,7.808888727e-10
84.0167,2.696593231,-0.06382905059,-32.11137794,4.952552353,0.1139265802,,180.0140498,-1.545351767e-09,-2.340251981e-10,8.376160258e-11
84.1167,2.696593305,-0.06382921227,-32.11137827,4.952552353,0.1139265806,,180.0140498,-8.351611281e-09,-3.167176021e-08,-2.187155252e-09
84.2167,2.696593324,-0.06382925052,-32.11137835,4.952552353,0.113926581,,180.0140498,5.3409573e-10,-1.181036202e-08,-2.1813388e-10
84.325,2.696593243,-0.06382911579,-32.11137804,4.952552353,0.1139265806,,180.0140498,8.401047473e-09,1.906150959e-08,1.580183838e-09
84.4083,2.696593276,-0.06382911108,-32.11137838,4.952552353,0.11392658,,180.0140498,3.657056257e-09,1.299879246e-08,6.792689259e-10
84.5167,2.69659326,-0.0638290588,-32.11137835,4.952552353,0.1139265798,,180.0140498,-1.933917293e-09,-6.838250088e-10,-7.784438767e-11
84.6167,2.69659323,-0.0638290547,-32.1113781,4.952552352,0.11392658,,180.0140498,1.204215553e-09,3.324525191e-09,-1.579910153e-10
84.7083,2.696593281,-0.06382913747,-32.11137835,4.952552354,0.1139265822,,180.0140498,2.263227462e-08,3.542792165e-08,2.744068197e-09
84.8167,2.6965933,-0.06382915153,-32.11137852,4.952552356,0.1139265862,,180.0140498,3.10333975e-08,3.703636188e-08,2.920707148e-09
84.925,2.696593308,-0.06382917827,-32.11137825,4.952552358,0.1139265867,,180.0140498,1.326933278e-09,-3.200666365e-08,-2.385081796e-09
85.0167,2.696593242,-0.06382910705,-32.11137802,4.952552359,0.1139265856,,180.0140498,1.565115089e-08,2.604243945e-08,1.972476567e-09
85.1083,2.696593256,-0.06382904219,-32.11137823,4.952552359,0.1139265845,,180.0140498,5.107642478e-09,6.123354594e-09,3.252034843e-10
85.2083,2.696593296,-0.06382906477,-32.11137861,4.95255236,0.113926584,,180.0140498,2.52386321e-09,1.443891803e-09,-8.790961653e-10
85.3167,2.696593251,-0.06382898682,-32.11137825,4.95255236,0.1139265834,,180.0140498,-7.34537623e-11,-1.627618907e-08,-3.373674426e-10
85.4083,2.696593338,-0.06382921418,-32.11137846,4.952552361,0.1139265839,,180.0140498,2.00133131e-09,-2.113607345e-08,-1.593212087e-09
85.5083,2.696593338,-0.06382930202,-32.11137862,4.952552361,0.1139265832,,180.0140498,1.273930652e-08,1.04344569e-08,-1.594720346e-10
85.6083,2.696593227,-0.06382907089,-32.11137796,4.952552362,0.1139265822,,180.0140498,1.23427888e-08,1.802254439e-08,1.40568704e-09
85.7083,2.696593213,-0.0638290304,-32.11137783,4.952552362,0.1139265812,,180.0140498,5.672870002e-09,6.060715292e-09,5.325014085e-10
85.8167,2.696593218,-0.06382897717,-32.1113777,4.952552363,0.1139265809,,180.0140498,-5.287639293e-10,-1.537496642e-08,-2.268864435e-10
85.9167,2.696593341,-0.06382919461,-32.11137856,4.952552364,0.1139265811,,180.0140498,-1.44270181e-09,-2.613773261e-08,-1.853425907e-09
86.0167,2.696593322,-0.06382921084,-32.11137846,4.952552364,0.1139265806,,180.0140498,2.635215506e-09,-2.015340484e-08,-1.09135218e-09
86.1167,2.696593301,-0.0638292168,-32.11137813,4.952552364,0.113926581,,180.0140498,-8.628716164e-09,-1.627949234e-08,-8.232534695e-10
86.2167,2.696593282,-0.06382922712,-32.11137812,4.952552364,0.113926581,,180.0140498,6.111397349e-09,-3.933252988e-09,7.294162612e-10
86.3167,2.696593373,-0.06382930112,-32.11137891,4.952552364,0.1139265806,,180.0140498,1.075332368e-08,8.345500033e-09,-3.596208384e-10
86.4167,2.696593229,-0.06382901079,-32.11137803,4.952552363,0.1139265802,,180.0140498,-1.64241564e-08,-2.639282059e-09,8.642072006e-10
86.5167,2.696593297,-0.06382918813,-32.11137824,4.952552363,0.113926581,,180.0140498,-4.790607934e-09,-2.518505463e-08,-1.555877409e-09
86.6167,2.696593347,-0.06382921303,-32.11137867,4.952552363,0.1139265808,,180.0140498,-1.701983382e-10,-2.275804319e-08,-1.725519962e-09
86.7167,2.696593322,-0.06382920665,-32.11137848,4.952552364,0.1139265805,,180.0140498,3.694771712e-09,-1.795249407e-08,-8.511661135e-10
86.8167,2.696593327,-0.06382920751,-32.1113786,4.952552363,0.1139265806,,180.0140498,-1.67901269e-08,-2.184708614e-08,-1.404043756e-09
86.9167,2.696593315,-0.06382921003,-32.11137826,4.952552363,0.1139265811,,180.0140498,-2.346700138e-09,-2.071242632e-08,-1.44397403e-09
87.0167,2.696593334,-0.06382921153,-32.11137841,4.952552363,0.1139265809,,180.0140498,9.288440718e-10,-1.846845196e-08,-9.56770052e-10
87.1333,2.696593375,-0.06382925157,-32.11137881,4.952552363,0.1139265806,,180.0140498,3.901589184e-09,-1.026539436e-08,-9.549542545e-10
87.2167,2.696593254,-0.06382922194,-32.11137803,4.952552363,0.1139265813,,180.0140498,-1.449160095e-08,-1.076575274e-08,-1.202092529e-11
87.3167,2.69659332,-0.06382930391,-32.11137835,4.952552362,0.1139265816,,180.0140498,7.471200712e-09,1.387972533e-08,1.66326863e-10
87.4333,2.696593228,-0.06382907274,-32.11137794,4.952552362,0.1139265807,,180.0140498,8.738368351e-09,1.881880892e-08,1.373424259e-09
87.5083,2.696593233,-0.06382898078,-32.11137803,4.952552362,0.1139265802,,180.0140498,-2.268375774e-09,-1.504059838e-08,-2.249096853e-10
87.6167,2.696593334,-0.06382918884,-32.11137848,4.952552363,0.1139265803,,180.0140498,-3.066152421e-09,-2.737772593e-08,-2.138694887e-09
87.7167,2.696593293,-0.06382920668,-32.11137831,4.952552363,0.1139265813,,180.0140498,-1.077766182e-08,-2.000572168e-08,-1.143894618e-09
87.8167,2.696593309,-0.06382923508,-32.1113783,4.952552362,0.1139265812,,180.0140498,5.222350522e-09,-3.870614171e-09,4.889172432e-10
87.9167,2.696593351,-0.06382929509,-32.11137869,4.952552363,0.1139265808,,180.0140498,9.817074975e-09,9.906526482e-09,-2.126311313e-10
88.0167,2.696593361,-0.06382931166,-32.11137868,4.952552362,0.1139265808,,180.0140498,-6.808068754e-09,2.405181109e-08,1.181522643e-09
88.1167,2.696593269,-0.06382910941,-32.11137837,4.952552362,0.1139265809,,180.0140498,7.121091792e-09,2.515757444e-08,1.546374678e-09
88.2167,2.696593292,-0.06382908605,-32.1113785,4.952552362,0.1139265805,,180.0140498,6.652523545e-09,1.619325865e-08,5.229288934e-10
88.3167,2.696593223,-0.06382903386,-32.11137785,4.952552362,0.1139265801,,180.0140498,5.904537171e-09,8.62471489e-09,7.233139981e-10
88.4167,2.696593312,-0.06382886538,-32.1113782,4.952552363,0.11392658,,180.0140498,-1.402130343e-08,2.632921571e-08,2.971958578e-09
88.5167,2.696593251,-0.06382904763,-32.11137838,4.952552361,0.1139265806,,180.0140498,-3.413238251e-09,9.257606115e-09,7.096264263e-10
88.6167,2.69659324,-0.06382898832,-32.11137817,4.952552361,0.1139265806,,180.0140498,-1.877213842e-09,-1.436222667e-08,-1.378094076e-10
88.7167,2.696593304,-0.06382917679,-32.11137825,4.952552362,0.1139265805,,180.0140498,-5.030392705e-09,-2.8695731e-08,-2.051267551e-09
88.8167,2.696593303,-0.06382918369,-32.11137823,4.952552362,0.1139265803,,180.0140498,-2.312823857e-09,-2.504364074e-08,-1.632318521e-09
88.9167,2.696593282,-0.06382919874,-32.11137812,4.952552362,0.1139265809,,180.0140498,-1.332636145e-08,-2.280355834e-08,-1.573207255e-09
89.0167,2.696593304,-0.06382920802,-32.11137815,4.952552361,0.1139265812,,180.0140498,4.174427098e-10,-1.70469811e-08,-6.706388504e-10
89.1167,2.696593296,-0.06382923523,-32.11137809,4.952552362,0.113926581,,180.0140498,3.204547193e-09,-1.067243299e-08,-6.486637175e-10
89.2167,2.696593338,-0.06382923611,-32.11137858,4.952552362,0.1139265807,,180.0140498,6.359134028e-09,-4.563429392e-09,1.692293864e-10
89.3167,2.696593317,-0.06382926831,-32.11137829,4.952552361,0.1139265813,,180.0140498,-1.373507496e-08,-1.190279879e-09,6.825644817e-11
89.4167,2.696593261,-0.06382911936,-32.11137832,4.952552361,0.1139265814,,180.0140498,1.158664666e-08,2.946752197e-08,2.1730533e-09
89.5167,2.69659323,-0.06382903137,-32.11137809,4.952552361,0.1139265803,,180.0140498,3.34837569e-09,6.109046248e-09,4.488008956e-10
89.6167,2.696593315,-0.06382918238,-32.1113782,4.952552362,0.1139265808,,180.0140498,-3.546619848e-09,-2.700991251e-08,-1.977328176e-09
89.7167,2.696593334,-0.06382924749,-32.11137846,4.952552362,0.1139265808,,180.0140498,3.714091455e-09,-8.553723497e-09,-6.676851083e-10
89.8167,2.696593263,-0.06382922232,-32.11137807,4.952552361,0.1139265813,,180.0140498,-1.469669792e-08,-8.040604969e-09,2.842494825e-10
